PacketCounter,SampleTimeFine,Acc_X,Acc_Y,Acc_Z,FreeAcc_E,FreeAcc_N,FreeAcc_U,AccHR_X,AccHR_Y,AccHR_Z,Gyr_X,Gyr_Y,Gyr_Z,GyrHR_X,GyrHR_Y,GyrHR_Z,Mag_X,Mag_Y,Mag_Z,VelInc_X,VelInc_Y,VelInc_Z,OriInc_q0,OriInc_q1,OriInc_q2,OriInc_q3,Pressure,Quat_q0,Quat_q1,Quat_q2,Quat_q3,Roll,Pitch,Yaw,Mat[1][1],Mat[2][1],Mat[3][1],Mat[1][2],Mat[2][2],Mat[3][2],Mat[1][3],Mat[2][3],Mat[3][3],Latitude,Longitude,Altitude,Vel_E,Vel_N,Vel_U,Temperature,GyrTemp_X,GyrTemp_Y,GyrTemp_Z
40224,1105539,-0.004852,0.162566,9.807539,-0.034429,-0.007151,0.021104,,,,0.001476,0.001466,-0.000983,,,,,,,-0.000012,0.000406,0.024519,1,0.000002,0.000002,-0.000001,,0.999955,0.008657,-0.001537,-0.003551,0.992668,-0.172615,-0.408476,0.99997,-0.007129,0.003013,0.007076,0.999825,0.017324,-0.003136,-0.017303,0.999845,,,,,,,30.29,,,
40225,1105564,0.034883,0.153792,9.791348,0.005194,-0.015998,0.004885,,,,0.00245,-0.001061,-0.00018,,,,,,,0.000087,0.000384,0.024478,1,0.000003,-0.000001,0,,0.999955,0.00866,-0.001539,-0.003551,0.992955,-0.172827,-0.408435,0.99997,-0.007128,0.003016,0.007075,0.999825,0.017329,-0.003139,-0.017308,0.999845,,,,,,,30.29,,,
40226,1105589,0.027542,0.197887,9.805868,-0.001827,0.027816,0.020145,,,,0.002906,0.000782,0.000771,,,,,,,0.000069,0.000495,0.024515,1,0.000004,0.000001,0.000001,,0.999955,0.008663,-0.001539,-0.003551,0.99332,-0.172778,-0.40839,0.99997,-0.007128,0.003016,0.007074,0.999825,0.017336,-0.003139,-0.017314,0.999845,,,,,,,30.29,,,
40227,1105614,-0.006631,0.158036,9.79588,-0.036034,-0.011511,0.009365,,,,-0.00046,0.005027,0.003161,,,,-0.217739,-0.277143,0.380352,-0.000016,0.000395,0.02449,1,-0.000001,0.000006,0.000004,100250,0.999955,0.008662,-0.001533,-0.003547,0.993203,-0.172127,-0.407992,0.99997,-0.007121,0.003004,0.007068,0.999825,0.017334,-0.003127,-0.017312,0.999845,,,,,,,30.29,,,
40228,1105639,0.020574,0.163279,9.80563,-0.008954,-0.006796,0.019285,,,,0.003324,0.000054,-0.001012,,,,,,,0.000051,0.000408,0.024514,1,0.000004,0,-0.000001,,0.999955,0.008666,-0.001533,-0.003549,0.993629,-0.172177,-0.408204,0.99997,-0.007124,0.003005,0.007071,0.999825,0.017341,-0.003128,-0.017319,0.999845,,,,,,,30.29,,,
40229,1105664,0.001695,0.147313,9.781337,-0.027885,-0.022148,-0.005339,,,,0.000743,-0.000063,0.001169,,,,,,,0.000004,0.000368,0.024453,1,0.000001,0,0.000001,,0.999955,0.008666,-0.001534,-0.003547,0.99367,-0.17225,-0.407962,0.99997,-0.00712,0.003006,0.007067,0.999825,0.017342,-0.003129,-0.01732,0.999845,,,,,,,30.29,,,
40230,1105689,0.014018,0.155087,9.798551,-0.015615,-0.014726,0.012046,,,,-0.000167,-0.000884,0.001823,,,,,,,0.000035,0.000388,0.024496,1,0,-0.000001,0.000002,,0.999955,0.008665,-0.001536,-0.003545,0.993595,-0.172442,-0.40777,0.99997,-0.007117,0.00301,0.007064,0.999825,0.017341,-0.003133,-0.017319,0.999845,,,,,,,30.29,,,
40231,1105714,0.0186,0.151852,9.792376,-0.01103,-0.017792,0.005828,,,,-0.001824,-0.000097,0.001975,,,,-0.21821,-0.27813,0.379857,0.000046,0.00038,0.024481,1,-0.000002,0,0.000002,100254,0.999955,0.008662,-0.001536,-0.003543,0.993282,-0.172522,-0.407555,0.99997,-0.007113,0.003011,0.00706,0.999825,0.017335,-0.003134,-0.017313,0.999845,,,,,,,30.29,,,
40232,1105739,0.03539,0.131352,9.786272,0.005658,-0.038305,-0.000579,,,,-0.000694,0.000624,-0.000809,,,,,,,0.000089,0.000328,0.024466,1,-0.000001,0.000001,-0.000001,,0.999955,0.008661,-0.001536,-0.003545,0.993133,-0.172491,-0.407737,0.99997,-0.007116,0.003011,0.007063,0.999825,0.017332,-0.003133,-0.017311,0.999845,,,,,,,30.29,,,
40233,1105764,0.041286,0.200402,9.811283,0.011811,0.030326,0.02564,,,,-0.001499,-0.002681,-0.003976,,,,,,,0.000103,0.000501,0.024528,1,-0.000002,-0.000003,-0.000005,,0.999955,0.008659,-0.00154,-0.003549,0.992856,-0.172926,-0.408222,0.99997,-0.007125,0.003018,0.007071,0.999825,0.017328,-0.003141,-0.017306,0.999845,,,,,,,30.29,,,
40234,1105789,0.064454,0.097194,9.801459,0.034266,-0.072821,0.014101,,,,-0.001337,-0.001353,-0.000873,,,,,,,0.000161,0.000243,0.024504,1,-0.000002,-0.000002,-0.000001,,0.999955,0.008657,-0.001542,-0.003551,0.992615,-0.173179,-0.408418,0.99997,-0.007128,0.003023,0.007075,0.999825,0.017323,-0.003145,-0.017302,0.999845,,,,,,,30.29,,,
40235,1105814,0.028337,0.174552,9.81002,-0.001236,0.00474,0.023891,,,,-0.002693,0.001439,0.000208,,,,-0.219656,-0.277627,0.380336,0.000071,0.000437,0.024525,1,-0.000003,0.000002,0,100250,0.999955,0.008653,-0.001541,-0.003551,0.992178,-0.173034,-0.408452,0.99997,-0.007129,0.00302,0.007075,0.999825,0.017316,-0.003143,-0.017294,0.999845,,,,,,,30.29,,,
40236,1105839,0.070502,0.133496,9.820342,0.040746,-0.036905,0.033628,,,,0.001217,0.003838,0.001238,,,,,,,0.000176,0.000334,0.024551,1,0.000002,0.000005,0.000002,,0.999955,0.008654,-0.001537,-0.00355,0.992302,-0.172548,-0.408333,0.99997,-0.007127,0.003012,0.007073,0.999825,0.017318,-0.003134,-0.017296,0.999845,,,,,,,30.29,,,
40237,1105864,0.02319,0.169444,9.820745,-0.006496,-0.000735,0.034513,,,,0.00292,-0.001629,-0.000049,,,,,,,0.000058,0.000423,0.024552,1,0.000004,-0.000002,0,,0.999955,0.008657,-0.001539,-0.003549,0.992655,-0.172842,-0.408256,0.99997,-0.007125,0.003017,0.007072,0.999825,0.017324,-0.00314,-0.017302,0.999846,,,,,,,30.29,,,
40238,1105889,0.063303,0.136211,9.807348,0.03359,-0.033942,0.020663,,,,0.000086,0.002783,-0.000598,,,,,,,0.000158,0.000341,0.024518,1,0,0.000003,-0.000001,,0.999955,0.008657,-0.001536,-0.003551,0.992617,-0.172503,-0.408403,0.99997,-0.007128,0.003011,0.007075,0.999825,0.017324,-0.003134,-0.017302,0.999846,,,,,,,30.29,,,
40239,1105914,-0.008886,0.203867,9.816766,-0.03805,0.034026,0.031035,,,,0.000779,0.003663,0.002498,,,,-0.218232,-0.276154,0.379848,-0.000022,0.00051,0.024542,1,0.000001,0.000005,0.000003,100250,0.999955,0.008657,-0.001532,-0.003548,0.992678,-0.172045,-0.408103,0.99997,-0.007123,0.003003,0.00707,0.999825,0.017325,-0.003126,-0.017303,0.999846,,,,,,,30.28,,,
40240,1105939,-0.025756,0.075013,9.779644,-0.055609,-0.094077,-0.008365,,,,0.001258,0.004198,0.000066,,,,,,,-0.000064,0.000187,0.024449,1,0.000002,0.000005,0,,0.999955,0.008658,-0.001527,-0.003549,0.992807,-0.171505,-0.408151,0.99997,-0.007123,0.002993,0.007071,0.999825,0.017327,-0.003116,-0.017305,0.999846,,,,,,,30.28,,,
40241,1105964,0.058416,0.27886,9.822176,0.029607,0.108335,0.037948,,,,0.002178,-0.003015,0.00094,,,,,,,0.000146,0.000697,0.024555,1,0.000003,-0.000004,0.000001,,0.999955,0.008661,-0.001532,-0.003547,0.993055,-0.172,-0.407952,0.99997,-0.00712,0.003002,0.007067,0.999825,0.017331,-0.003125,-0.017309,0.999846,,,,,,,30.28,,,
40242,1105989,0.000375,0.156775,9.816074,-0.029151,-0.013178,0.029555,,,,0.000588,0.001217,-0.000829,,,,,,,0.000001,0.000392,0.02454,1,0.000001,0.000002,-0.000001,,0.999955,0.008661,-0.001531,-0.003549,0.993089,-0.171884,-0.408135,0.99997,-0.007123,0.003,0.00707,0.999825,0.017332,-0.003123,-0.01731,0.999846,,,,,,,30.28,,,
40243,1106014,0.044217,0.164834,9.776926,0.014943,-0.00481,-0.009315,,,,0.001592,0.002331,-0.001113,,,,-0.221574,-0.277612,0.382297,0.000111,0.000412,0.024442,1,0.000002,0.000003,-0.000001,100249,0.999955,0.008662,-0.001528,-0.00355,0.993267,-0.171609,-0.408356,0.99997,-0.007127,0.002995,0.007074,0.999825,0.017335,-0.003118,-0.017313,0.999846,,,,,,,30.29,,,
40244,1106039,-0.037929,0.17343,9.779165,-0.067269,0.004275,-0.007172,,,,0.002133,-0.001056,0.002304,,,,,,,-0.000095,0.000433,0.024448,1,0.000003,-0.000001,0.000003,,0.999955,0.008665,-0.00153,-0.003548,0.993521,-0.171826,-0.408096,0.999971,-0.007123,0.002999,0.007069,0.999825,0.017339,-0.003122,-0.017318,0.999846,,,,,,,30.29,,,
40245,1106064,0.055086,0.166632,9.806633,0.025555,-0.003646,0.020449,,,,0.001018,-0.001432,0.000764,,,,,,,0.000138,0.000417,0.024517,1,0.000001,-0.000002,0.000001,,0.999955,0.008665,-0.001533,-0.003547,0.993604,-0.172094,-0.407911,0.99997,-0.007119,0.003004,0.007066,0.999825,0.017341,-0.003127,-0.017319,0.999845,,,,,,,30.29,,,
40246,1106089,0.027039,0.202338,9.84416,-0.002335,0.0317,0.058505,,,,-0.001277,-0.000088,0.000519,,,,,,,0.000068,0.000506,0.02461,1,-0.000002,0,0.000001,,0.999955,0.008663,-0.001533,-0.003546,0.99337,-0.172168,-0.407904,0.99997,-0.007119,0.003005,0.007066,0.999825,0.017337,-0.003128,-0.017315,0.999845,,,,,,,30.29,,,
40247,1106114,0.053974,0.143411,9.782743,0.024423,-0.026325,-0.003843,,,,-0.00087,0.001184,0.001859,,,,-0.217743,-0.276649,0.380844,0.000135,0.000359,0.024457,1,-0.000001,0.000001,0.000002,100254,0.999955,0.008662,-0.001532,-0.003545,0.993195,-0.172064,-0.407702,0.99997,-0.007116,0.003003,0.007063,0.999825,0.017334,-0.003126,-0.017312,0.999845,,,,,,,30.29,,,
40248,1106139,0.008433,0.153799,9.78806,-0.021036,-0.015711,0.001515,,,,-0.000176,0.001351,0.004832,,,,,,,0.000021,0.000385,0.02447,1,0,0.000002,0.000006,,0.999955,0.008661,-0.001531,-0.003539,0.993117,-0.171943,-0.407074,0.99997,-0.007105,0.003001,0.007052,0.999825,0.017332,-0.003124,-0.017311,0.999845,,,,,,,30.29,,,
40249,1106164,-0.005739,0.146167,9.835504,-0.035418,-0.024279,0.048779,,,,0.004535,0.000688,-0.000963,,,,,,,-0.000014,0.000365,0.024589,1,0.000006,0.000001,-0.000001,,0.999955,0.008666,-0.001531,-0.00354,0.993703,-0.171903,-0.407124,0.99997,-0.007106,0.003,0.007053,0.999825,0.017342,-0.003123,-0.017321,0.999845,,,,,,,30.29,,,
40250,1106189,0.104244,0.225598,9.821105,0.075174,0.054713,0.036089,,,,0.000235,0.000637,-0.002044,,,,,,,0.000261,0.000564,0.024553,1,0,0.000001,-0.000003,,0.999955,0.008666,-0.001531,-0.003543,0.993687,-0.171867,-0.407483,0.99997,-0.007112,0.003,0.007059,0.999825,0.017342,-0.003122,-0.01732,0.999845,,,,,,,30.29,,,
40251,1106214,0.022848,0.065995,9.778452,-0.007256,-0.103626,-0.00957,,,,0.00199,-0.00028,0.001106,,,,-0.219649,-0.27812,0.380833,0.000057,0.000165,0.024446,1,0.000002,0,0.000001,100262,0.999955,0.008668,-0.001531,-0.003542,0.993921,-0.171971,-0.407393,0.99997,-0.00711,0.003001,0.007057,0.999825,0.017346,-0.003124,-0.017325,0.999845,,,,,,,30.3,,,
40252,1106239,0.034052,0.166951,9.79316,0.004457,-0.00308,0.006922,,,,0.002385,-0.003102,0.003137,,,,,,,0.000085,0.000417,0.024483,1,0.000003,-0.000004,0.000004,,0.999955,0.008671,-0.001536,-0.003539,0.994211,-0.172484,-0.407019,0.99997,-0.007104,0.00301,0.00705,0.999825,0.017351,-0.003133,-0.01733,0.999845,,,,,,,30.3,,,
40253,1106264,0.035979,0.116809,9.807539,0.006048,-0.053518,0.020433,,,,0.002248,-0.000061,0.000284,,,,,,,0.00009,0.000292,0.024519,1,0.000003,0,0,,0.999955,0.008673,-0.001537,-0.003537,0.994469,-0.172555,-0.406871,0.99997,-0.007101,0.003012,0.007048,0.999825,0.017356,-0.003134,-0.017334,0.999845,,,,,,,30.3,,,
40254,1106289,0.032118,0.17954,9.823511,0.002611,0.008803,0.037481,,,,0.004343,0.000849,0.001083,,,,,,,0.00008,0.000449,0.024559,1,0.000005,0.000001,0.000001,,0.999955,0.008678,-0.001536,-0.003537,0.995041,-0.172497,-0.406781,0.99997,-0.0071,0.003011,0.007046,0.999825,0.017366,-0.003133,-0.017344,0.999845,,,,,,,30.3,,,
40255,1106314,0.000979,0.134284,9.804726,-0.028821,-0.035843,0.017818,,,,0.001232,-0.000007,0.003623,,,,-0.217767,-0.275172,0.378363,0.000002,0.000336,0.024512,1,0.000002,0,0.000005,100254,0.999955,0.008679,-0.001537,-0.003533,0.995165,-0.172568,-0.40633,0.99997,-0.007092,0.003012,0.007038,0.999825,0.017368,-0.003135,-0.017346,0.999845,,,,,,,30.29,,,
40256,1106339,0.000984,0.199019,9.786604,-0.028326,0.029068,0.000824,,,,0.003386,-0.000249,0.000147,,,,,,,0.000002,0.000497,0.024467,1,0.000004,0,0,,0.999955,0.008683,-0.001538,-0.003533,0.9956,-0.172664,-0.406377,0.99997,-0.007093,0.003014,0.007039,0.999824,0.017376,-0.003136,-0.017354,0.999845,,,,,,,30.29,,,
40257,1106364,0.00402,0.096397,9.786248,-0.026139,-0.073513,-0.001308,,,,0.00117,-0.002539,-0.000933,,,,,,,0.00001,0.000241,0.024466,1,0.000001,-0.000003,-0.000001,,0.999955,0.008684,-0.001541,-0.003534,0.995704,-0.173087,-0.406461,0.99997,-0.007094,0.003021,0.00704,0.999824,0.017377,-0.003144,-0.017356,0.999844,,,,,,,30.29,,,
40258,1106389,0.045288,0.18652,9.819148,0.015685,0.015566,0.033278,,,,0.004096,-0.00046,0.001403,,,,,,,0.000113,0.000466,0.024548,1,0.000005,-0.000001,0.000002,,0.999955,0.008688,-0.001542,-0.003533,0.99624,-0.173217,-0.406329,0.99997,-0.007092,0.003023,0.007038,0.999824,0.017387,-0.003146,-0.017365,0.999844,,,,,,,30.29,,,
40259,1106414,0.013829,0.169207,9.803104,-0.015843,-0.001184,0.016841,,,,0.001027,-0.000086,-0.003555,,,,-0.21721,-0.281096,0.381365,0.000035,0.000423,0.024508,1,0.000001,0,-0.000004,100252,0.999955,0.008689,-0.001543,-0.003538,0.996338,-0.173281,-0.406906,0.99997,-0.007102,0.003024,0.007048,0.999824,0.017388,-0.003147,-0.017367,0.999844,,,,,,,30.29,,,
40260,1106439,0.004305,0.151645,9.790826,-0.025441,-0.018497,0.00423,,,,0.001413,0.000454,0.001524,,,,,,,0.000011,0.000379,0.024477,1,0.000002,0.000001,0.000002,,0.999955,0.00869,-0.001543,-0.003536,0.996489,-0.17328,-0.406754,0.99997,-0.007099,0.003024,0.007045,0.999824,0.017391,-0.003147,-0.017369,0.999844,,,,,,,30.29,,,
40261,1106464,0.045578,0.144577,9.804725,0.015683,-0.026148,0.018128,,,,0.001963,-0.000665,0.000717,,,,,,,0.000114,0.000361,0.024512,1,0.000002,-0.000001,0.000001,,0.999955,0.008692,-0.001544,-0.003535,0.996706,-0.173439,-0.406571,0.99997,-0.007096,0.003027,0.007042,0.999824,0.017395,-0.00315,-0.017373,0.999844,,,,,,,30.29,,,
40262,1106489,0.030141,0.1794,9.805512,0.000486,0.008793,0.019475,,,,0.000576,-0.00018,0.000345,,,,,,,0.000075,0.000448,0.024514,1,0.000001,0,0,,0.999955,0.008693,-0.001545,-0.003535,0.996738,-0.173526,-0.40659,0.99997,-0.007096,0.003029,0.007043,0.999824,0.017395,-0.003152,-0.017374,0.999844,,,,,,,30.29,,,
40263,1106514,0.010237,0.13702,9.81636,-0.019821,-0.033653,0.029525,,,,0.00101,-0.001292,0.001786,,,,-0.218218,-0.277637,0.378865,0.000026,0.000342,0.024541,1,0.000001,-0.000002,0.000002,100260,0.999955,0.008693,-0.001547,-0.003533,0.996831,-0.173776,-0.406405,0.99997,-0.007093,0.003033,0.007039,0.999824,0.017397,-0.003156,-0.017375,0.999844,,,,,,,30.3,,,
40264,1106539,0.05071,0.192478,9.826042,0.020894,0.021511,0.040293,,,,-0.002794,-0.002868,-0.000738,,,,,,,0.000127,0.000481,0.024565,1,-0.000003,-0.000004,-0.000001,,0.999955,0.008689,-0.001551,-0.003535,0.996381,-0.174246,-0.406585,0.99997,-0.007096,0.003041,0.007042,0.999824,0.017389,-0.003164,-0.017367,0.999844,,,,,,,30.3,,,
40265,1106564,0.013666,0.094527,9.774971,-0.016769,-0.07527,-0.012585,,,,-0.001222,-0.003085,0.001699,,,,,,,0.000034,0.000236,0.024437,1,-0.000002,-0.000004,0.000002,,0.999955,0.008687,-0.001556,-0.003532,0.996141,-0.174753,-0.406244,0.99997,-0.00709,0.00305,0.007036,0.999824,0.017385,-0.003173,-0.017363,0.999844,,,,,,,30.3,,,
40266,1106589,0.005559,0.177087,9.799315,-0.024361,0.007052,0.013166,,,,-0.003341,-0.0011,0.001843,,,,,,,0.000014,0.000443,0.024498,1,-0.000004,-0.000001,0.000002,,0.999955,0.008683,-0.001558,-0.00353,0.995611,-0.174976,-0.40605,0.999971,-0.007087,0.003054,0.007033,0.999825,0.017376,-0.003177,-0.017354,0.999845,,,,,,,30.3,,,
40267,1106614,0.028523,0.119338,9.831999,-0.001908,-0.051652,0.04491,,,,0.003306,-0.000326,0.000741,,,,-0.222104,-0.274159,0.378317,0.000071,0.000298,0.02458,1,0.000004,0,0.000001,100250,0.999955,0.008686,-0.001559,-0.00353,0.996034,-0.175085,-0.406012,0.99997,-0.007086,0.003056,0.007032,0.999824,0.017383,-0.003178,-0.017361,0.999844,,,,,,,30.29,,,
40268,1106639,0.085809,0.207263,9.820081,0.055932,0.036233,0.034698,,,,-0.001714,-0.002028,-0.00024,,,,,,,0.000214,0.000518,0.02455,1,-0.000002,-0.000003,0,,0.999955,0.008684,-0.001562,-0.003531,0.995738,-0.175436,-0.406119,0.99997,-0.007088,0.003062,0.007034,0.999824,0.017378,-0.003185,-0.017356,0.999844,,,,,,,30.29,,,
40269,1106664,0.001272,0.073007,9.794593,-0.029444,-0.097043,0.006619,,,,0.001089,-0.000341,-0.000066,,,,,,,0.000003,0.000182,0.024486,1,0.000001,0,0,,0.999955,0.008685,-0.001563,-0.00353,0.995831,-0.175545,-0.40604,0.99997,-0.007087,0.003064,0.007032,0.999824,0.01738,-0.003186,-0.017358,0.999844,,,,,,,30.29,,,
40270,1106689,0.067079,0.195026,9.785797,0.037223,0.024773,0.000147,,,,-0.001957,-0.000493,-0.001223,,,,,,,0.000168,0.000488,0.024464,1,-0.000002,-0.000001,-0.000002,,0.999955,0.008682,-0.001564,-0.003532,0.995501,-0.175673,-0.406284,0.99997,-0.007091,0.003066,0.007037,0.999824,0.017374,-0.003189,-0.017352,0.999844,,,,,,,30.29,,,
40271,1106714,-0.034669,0.150313,9.788654,-0.06484,-0.019423,0.001915,,,,0.002498,0.000108,0.000393,,,,-0.217259,-0.277147,0.379862,-0.000087,0.000376,0.024472,1,0.000003,0,0,100252,0.999955,0.008684,-0.001564,-0.003532,0.995808,-0.17572,-0.406295,0.99997,-0.007091,0.003067,0.007037,0.999824,0.017379,-0.00319,-0.017357,0.999844,,,,,,,30.29,,,
40272,1106739,0.052654,0.156882,9.801414,0.022738,-0.013489,0.015054,,,,-0.002819,0.005358,-0.001781,,,,,,,0.000132,0.000392,0.024504,1,-0.000004,0.000007,-0.000002,,0.999955,0.008681,-0.001558,-0.003535,0.995354,-0.175008,-0.406604,0.99997,-0.007096,0.003054,0.007042,0.999824,0.017371,-0.003177,-0.017349,0.999844,,,,,,,30.29,,,
40273,1106764,0.021224,0.227114,9.790562,-0.008316,0.056901,0.005331,,,,0.003741,-0.000151,0.002299,,,,,,,0.000053,0.000568,0.024476,1,0.000005,0,0.000003,,0.999955,0.008685,-0.001559,-0.003531,0.995825,-0.175097,-0.4062,0.99997,-0.007089,0.003056,0.007035,0.999824,0.017379,-0.003179,-0.017357,0.999844,,,,,,,30.29,,,
40274,1106789,-0.063055,0.144309,9.807731,-0.093343,-0.025429,0.0208,,,,-0.001219,-0.00218,0.002287,,,,,,,-0.000158,0.000361,0.024519,1,-0.000002,-0.000003,0.000003,,0.999955,0.008683,-0.001562,-0.003529,0.995599,-0.175476,-0.405945,0.99997,-0.007085,0.003063,0.007031,0.999824,0.017376,-0.003185,-0.017353,0.999845,,,,,,,30.29,,,
40275,1106814,0.065044,0.162362,9.800289,0.034891,-0.008415,0.014064,,,,0.00482,-0.001103,0.000643,,,,-0.219661,-0.277631,0.378356,0.000163,0.000406,0.024501,1,0.000006,-0.000001,0.000001,100253,0.999955,0.008688,-0.001564,-0.003529,0.996238,-0.175696,-0.405923,0.99997,-0.007085,0.003066,0.00703,0.999824,0.017387,-0.003189,-0.017365,0.999844,,,,,,,30.29,,,
40276,1106839,0.055595,0.184333,9.81481,0.025528,0.013423,0.028937,,,,0.001452,-0.000779,0.002178,,,,,,,0.000139,0.000461,0.024537,1,0.000002,-0.000001,0.000003,,0.999955,0.00869,-0.001566,-0.003527,0.996395,-0.175874,-0.405681,0.99997,-0.00708,0.00307,0.007026,0.999824,0.017389,-0.003192,-0.017367,0.999844,,,,,,,30.29,,,
40277,1106864,0.007943,0.159367,9.815907,-0.022203,-0.011095,0.029455,,,,-0.00163,0.00178,-0.001787,,,,,,,0.00002,0.000399,0.02454,1,-0.000002,0.000002,-0.000002,,0.999955,0.008687,-0.001564,-0.003528,0.996097,-0.175676,-0.405846,0.99997,-0.007083,0.003066,0.007029,0.999824,0.017384,-0.003189,-0.017362,0.999844,,,,,,,30.29,,,
40278,1106889,0.0444,0.171163,9.809973,0.014288,0.000604,0.023835,,,,-0.001836,-0.00024,0.000583,,,,,,,0.000111,0.000428,0.024525,1,-0.000002,0,0.000001,,0.999955,0.008684,-0.001565,-0.003528,0.995784,-0.175772,-0.405831,0.99997,-0.007083,0.003068,0.007029,0.999824,0.017379,-0.00319,-0.017357,0.999844,,,,,,,30.29,,,
40279,1106914,0.065532,0.153803,9.782911,0.035303,-0.016372,-0.003458,,,,-0.00197,-0.001553,0.001454,,,,-0.216787,-0.276658,0.378874,0.000164,0.000385,0.024457,1,-0.000002,-0.000002,0.000002,100254,0.999955,0.008681,-0.001567,-0.003527,0.995451,-0.176059,-0.405694,0.99997,-0.007081,0.003073,0.007026,0.999824,0.017373,-0.003195,-0.017351,0.999844,,,,,,,30.3,,,
40280,1106939,0.006968,0.167589,9.825373,-0.023235,-0.002912,0.039057,,,,-0.000787,0.000725,0.000448,,,,,,,0.000017,0.000419,0.024563,1,-0.000001,0.000001,0.000001,,0.999955,0.00868,-0.001567,-0.003527,0.995288,-0.176017,-0.405696,0.99997,-0.007081,0.003072,0.007026,0.999824,0.01737,-0.003195,-0.017348,0.999844,,,,,,,30.3,,,
40281,1106964,0.069335,0.167435,9.831788,0.03922,-0.003377,0.045661,,,,-0.005093,0.00283,0.002321,,,,,,,0.000174,0.000419,0.024579,1,-0.000006,0.000004,0.000003,,0.999955,0.008673,-0.001564,-0.003523,0.994492,-0.175678,-0.405274,0.99997,-0.007073,0.003066,0.007019,0.999825,0.017356,-0.003188,-0.017334,0.999845,,,,,,,30.3,,,
40282,1106989,-0.025311,0.202435,9.79867,-0.055217,0.032757,0.012863,,,,-0.000252,-0.001308,0.001258,,,,,,,-0.000063,0.000506,0.024497,1,0,-0.000002,0.000002,,0.999955,0.008672,-0.001566,-0.003522,0.994405,-0.17593,-0.405165,0.99997,-0.007071,0.003071,0.007017,0.999825,0.017355,-0.003193,-0.017333,0.999845,,,,,,,30.3,,,
40283,1107014,0.0521,0.088412,9.781431,0.021314,-0.081599,-0.006113,,,,0.002203,-0.003128,0.000689,,,,-0.217717,-0.279121,0.379866,0.00013,0.000221,0.024454,1,0.000003,-0.000004,0.000001,100254,0.999955,0.008675,-0.00157,-0.003522,0.99467,-0.17644,-0.405141,0.99997,-0.007071,0.003079,0.007016,0.999825,0.017359,-0.003202,-0.017337,0.999845,,,,,,,30.29,,,
40284,1107039,0.042581,0.198212,9.796691,0.012489,0.028017,0.011021,,,,0.000613,-0.001928,0.000609,,,,,,,0.000106,0.000495,0.024492,1,0.000001,-0.000002,0.000001,,0.999955,0.008675,-0.001573,-0.003522,0.994708,-0.176778,-0.405127,0.99997,-0.007071,0.003085,0.007016,0.999825,0.01736,-0.003208,-0.017338,0.999845,,,,,,,30.29,,,
40285,1107064,-0.009401,0.138401,9.821222,-0.040082,-0.031955,0.03435,,,,0.002866,-0.002642,-0.001185,,,,,,,-0.000024,0.000346,0.024553,1,0.000004,-0.000003,-0.000001,,0.999955,0.008678,-0.001577,-0.003523,0.995054,-0.177216,-0.40525,0.99997,-0.007073,0.003093,0.007018,0.999825,0.017366,-0.003215,-0.017344,0.999845,,,,,,,30.29,,,
40286,1107089,0.063316,0.188574,9.81262,0.033228,0.018238,0.026845,,,,-0.006449,0.003245,-0.00052,,,,,,,0.000158,0.000472,0.024532,1,-0.000008,0.000004,-0.000001,,0.999955,0.008669,-0.001574,-0.003524,0.99408,-0.17681,-0.405384,0.99997,-0.007075,0.003086,0.007021,0.999825,0.017349,-0.003208,-0.017327,0.999845,,,,,,,30.29,,,
40287,1107114,-0.000605,0.143304,9.792972,-0.031161,-0.026361,0.006216,,,,-0.000386,-0.002524,0.001352,,,,-0.218216,-0.278135,0.377382,-0.000002,0.000358,0.024482,1,0,-0.000003,0.000002,100254,0.999955,0.008668,-0.001577,-0.003523,0.993974,-0.177236,-0.405264,0.99997,-0.007073,0.003093,0.007018,0.999825,0.017347,-0.003215,-0.017325,0.999845,,,,,,,30.29,,,
40288,1107139,0.041279,0.160271,9.808064,0.010874,-0.010015,0.021729,,,,0.001203,0.000612,0.000028,,,,,,,0.000103,0.000401,0.02452,1,0.000002,0.000001,0,,0.999955,0.008669,-0.001577,-0.003524,0.994095,-0.177209,-0.405326,0.99997,-0.007074,0.003093,0.007019,0.999825,0.017349,-0.003215,-0.017327,0.999845,,,,,,,30.29,,,
40289,1107164,-0.011812,0.152232,9.779191,-0.042088,-0.017092,-0.007443,,,,-0.000916,0.002369,0.000248,,,,,,,-0.000029,0.000381,0.024448,1,-0.000001,0.000003,0,,0.999955,0.008668,-0.001575,-0.003523,0.9939,-0.176931,-0.405204,0.99997,-0.007072,0.003088,0.007017,0.999825,0.017346,-0.00321,-0.017324,0.999845,,,,,,,30.29,,,
40290,1107189,0.061244,0.189777,9.802796,0.030906,0.01966,0.017035,,,,-0.003083,-0.003661,0.000405,,,,,,,0.000153,0.000475,0.024507,1,-0.000004,-0.000005,0.000001,,0.999955,0.008663,-0.00158,-0.003523,0.993407,-0.177517,-0.405222,0.99997,-0.007072,0.003098,0.007018,0.999825,0.017337,-0.00322,-0.017315,0.999845,,,,,,,30.29,,,
40291,1107214,-0.016336,0.181543,9.798191,-0.046771,0.011824,0.012046,,,,0.003358,-0.002691,0.002404,,,,-0.21917,-0.278623,0.37787,-0.000041,0.000454,0.024495,1,0.000004,-0.000003,0.000003,100254,0.999955,0.008667,-0.001584,-0.00352,0.993837,-0.17797,-0.404952,0.99997,-0.007068,0.003106,0.007013,0.999825,0.017345,-0.003228,-0.017322,0.999845,,,,,,,30.29,,,
40292,1107239,-0.013282,0.121035,9.756659,-0.043851,-0.048008,-0.030518,,,,0.002501,0.002053,0.001837,,,,,,,-0.000033,0.000302,0.024392,1,0.000003,0.000003,0.000002,,0.999955,0.00867,-0.001582,-0.003519,0.994144,-0.177741,-0.404752,0.99997,-0.007064,0.003102,0.007009,0.999825,0.01735,-0.003224,-0.017328,0.999845,,,,,,,30.29,,,
40293,1107264,-0.001425,0.232453,9.822176,-0.031592,0.06216,0.036962,,,,0.001732,-0.002143,0.001063,,,,,,,-0.000004,0.000581,0.024555,1,0.000002,-0.000003,0.000001,,0.999955,0.008671,-0.001585,-0.003517,0.994327,-0.178112,-0.404538,0.99997,-0.00706,0.003109,0.007005,0.999825,0.017353,-0.003231,-0.017331,0.999845,,,,,,,30.29,,,
40294,1107289,0.080819,0.090352,9.791064,0.049856,-0.07989,0.003643,,,,-0.000341,0.001193,0.000299,,,,,,,0.000202,0.000226,0.024478,1,0,0.000001,0,,0.999955,0.008671,-0.001584,-0.003517,0.994227,-0.178002,-0.40456,0.99997,-0.007061,0.003107,0.007006,0.999825,0.017352,-0.003229,-0.017329,0.999845,,,,,,,30.29,,,
40295,1107314,-0.000414,0.255117,9.809353,-0.030301,0.08518,0.024533,,,,-0.001553,0.000332,-0.00039,,,,-0.218202,-0.279121,0.378377,-0.000001,0.000638,0.024523,1,-0.000002,0,0,100244,0.999955,0.008668,-0.001584,-0.003518,0.993955,-0.178014,-0.404683,0.99997,-0.007063,0.003107,0.007008,0.999825,0.017347,-0.003229,-0.017325,0.999845,,,,,,,30.29,,,
40296,1107339,-0.002583,0.061112,9.797668,-0.033795,-0.108566,0.00948,,,,-0.000751,0.000342,0.001956,,,,,,,-0.000006,0.000153,0.024494,1,-0.000001,0,0.000002,,0.999955,0.008667,-0.001584,-0.003516,0.993796,-0.178031,-0.404469,0.99997,-0.007059,0.003107,0.007004,0.999825,0.017344,-0.003229,-0.017322,0.999845,,,,,,,30.29,,,
40297,1107364,0.084925,0.214226,9.796046,0.054673,0.043863,0.010787,,,,0.001221,-0.002013,-0.002693,,,,,,,0.000212,0.000535,0.02449,1,0.000002,-0.000003,-0.000003,,0.999955,0.008668,-0.001587,-0.003519,0.993908,-0.178374,-0.40478,0.99997,-0.007065,0.003113,0.00701,0.999825,0.017346,-0.003235,-0.017324,0.999845,,,,,,,30.29,,,
40298,1107389,-0.009784,0.106094,9.785318,-0.040796,-0.063351,-0.00211,,,,-0.00008,-0.001593,-0.001262,,,,,,,-0.000025,0.000265,0.024463,1,0,-0.000002,-0.000002,,0.999955,0.008667,-0.00159,-0.003521,0.993847,-0.17866,-0.405032,0.99997,-0.007069,0.003118,0.007014,0.999825,0.017345,-0.00324,-0.017323,0.999845,,,,,,,30.29,,,
40299,1107414,0.038799,0.179474,9.841751,0.008033,0.008622,0.055738,,,,0.001637,-0.002302,-0.001231,,,,-0.217249,-0.278136,0.379371,0.000097,0.000449,0.024604,1,0.000002,-0.000003,-0.000002,100252,0.999955,0.008669,-0.001593,-0.003523,0.994031,-0.179047,-0.405281,0.99997,-0.007073,0.003125,0.007018,0.999825,0.017348,-0.003247,-0.017326,0.999845,,,,,,,30.29,,,
40300,1107439,0.020316,0.14339,9.79259,-0.010644,-0.026339,0.0059,,,,-0.001727,-0.003001,0.001653,,,,,,,0.000051,0.000359,0.024481,1,-0.000002,-0.000004,0.000002,,0.999955,0.008666,-0.001597,-0.003522,0.993733,-0.179542,-0.40512,0.99997,-0.007071,0.003134,0.007015,0.999825,0.017343,-0.003256,-0.01732,0.999845,,,,,,,30.29,,,
40301,1107464,0.022593,0.184652,9.794283,-0.007906,0.014844,0.008314,,,,-0.000143,0.002346,0.001391,,,,,,,0.000057,0.000462,0.024486,1,0,0.000003,0.000002,,0.999955,0.008666,-0.001595,-0.003519,0.993648,-0.17927,-0.404854,0.99997,-0.007066,0.003129,0.007011,0.999825,0.017341,-0.003251,-0.017319,0.999845,,,,,,,30.29,,,
40302,1107489,0.036382,0.147723,9.814,0.005589,-0.022462,0.027431,,,,-0.001043,0.001913,-0.00466,,,,,,,0.000091,0.000369,0.024535,1,-0.000001,0.000002,-0.000006,,0.999955,0.008664,-0.001593,-0.003526,0.99345,-0.179046,-0.405584,0.99997,-0.007079,0.003125,0.007023,0.999825,0.017338,-0.003247,-0.017316,0.999845,,,,,,,30.29,,,
40303,1107514,0.020007,0.169887,9.82337,-0.010678,-0.000392,0.037132,,,,0.000568,0.000849,0.000947,,,,-0.218239,-0.275661,0.37935,0.00005,0.000425,0.024558,1,0.000001,0.000001,0.000001,100260,0.999955,0.008664,-0.001593,-0.003525,0.993481,-0.178987,-0.405514,0.99997,-0.007077,0.003124,0.007022,0.999825,0.017339,-0.003246,-0.017316,0.999845,,,,,,,30.29,,,
40304,1107539,0.068284,0.203729,9.798694,0.037931,0.033599,0.013196,,,,-0.000943,0.001035,0.005309,,,,,,,0.000171,0.000509,0.024497,1,-0.000001,0.000001,0.000007,,0.999955,0.008662,-0.001592,-0.003519,0.993293,-0.178913,-0.404819,0.99997,-0.007065,0.003123,0.00701,0.999825,0.017335,-0.003245,-0.017313,0.999845,,,,,,,30.29,,,
40305,1107564,0.000923,0.134327,9.804082,-0.029952,-0.035424,0.017172,,,,0.000089,0.000314,0.002,,,,,,,0.000002,0.000336,0.02451,1,0,0,0.000003,,0.999955,0.008662,-0.001592,-0.003516,0.99324,-0.178933,-0.404455,0.99997,-0.007059,0.003123,0.007004,0.999825,0.017334,-0.003245,-0.017312,0.999845,,,,,,,30.29,,,
40306,1107589,0.073153,0.16511,9.769199,0.042575,-0.004648,-0.016945,,,,0.002142,-0.000331,-0.004715,,,,,,,0.000183,0.000413,0.024423,1,0.000003,0,-0.000006,,0.999955,0.008664,-0.001593,-0.003522,0.993498,-0.17903,-0.405199,0.99997,-0.007072,0.003125,0.007017,0.999825,0.017339,-0.003247,-0.017316,0.999845,,,,,,,30.29,,,
40307,1107614,-0.077755,0.194963,9.795262,-0.108385,0.026005,0.009157,,,,-0.002576,-0.00364,-0.000076,,,,-0.219194,-0.27565,0.381816,-0.000195,0.000488,0.024488,1,-0.000003,-0.000005,0,100256,0.999955,0.008661,-0.001598,-0.003523,0.993079,-0.179612,-0.405286,0.99997,-0.007073,0.003135,0.007018,0.999825,0.017332,-0.003257,-0.017309,0.999845,,,,,,,30.31,,,
40308,1107639,0.103266,0.109206,9.782362,0.072183,-0.060822,-0.004659,,,,-0.000557,0.000723,0.001473,,,,,,,0.000258,0.000273,0.024456,1,-0.000001,0.000001,0.000002,,0.999955,0.008659,-0.001598,-0.003522,0.992948,-0.179572,-0.405141,0.99997,-0.007071,0.003134,0.007016,0.999825,0.017329,-0.003256,-0.017307,0.999845,,,,,,,30.31,,,
40309,1107664,-0.049324,0.248999,9.804961,-0.079534,0.079452,0.019883,,,,0.003687,-0.000203,0.000065,,,,,,,-0.000123,0.000622,0.024512,1,0.000005,0,0,,0.999955,0.008663,-0.001598,-0.003521,0.993412,-0.179663,-0.405031,0.99997,-0.007069,0.003136,0.007014,0.999825,0.017337,-0.003258,-0.017315,0.999845,,,,,,,30.31,,,
40310,1107689,0.027473,0.053775,9.782743,-0.004149,-0.115677,-0.005473,,,,-0.002468,-0.002225,0.000515,,,,,,,0.000069,0.000135,0.024457,1,-0.000003,-0.000003,0.000001,,0.999955,0.00866,-0.001602,-0.003521,0.993007,-0.180043,-0.40503,0.99997,-0.007069,0.003142,0.007014,0.999825,0.01733,-0.003264,-0.017308,0.999845,,,,,,,30.31,,,
40311,1107714,0.044452,0.208353,9.80015,0.013879,0.038499,0.014661,,,,-0.001968,-0.000386,0.003488,,,,-0.219145,-0.280596,0.378869,0.000111,0.000521,0.0245,1,-0.000002,0,0.000004,100254,0.999955,0.008657,-0.001603,-0.003517,0.992674,-0.180168,-0.404599,0.99997,-0.007062,0.003145,0.007006,0.999825,0.017324,-0.003266,-0.017302,0.999845,,,,,,,30.3,,,
40312,1107739,-0.048572,0.097486,9.81195,-0.079944,-0.07193,0.024245,,,,-0.000125,0.000273,0.000408,,,,,,,-0.000121,0.000244,0.02453,1,0,0,0.000001,,0.999955,0.008656,-0.001603,-0.003517,0.992605,-0.180191,-0.404608,0.99997,-0.007062,0.003145,0.007006,0.999826,0.017323,-0.003267,-0.017301,0.999845,,,,,,,30.3,,,
40313,1107764,0.120576,0.190372,9.819196,0.08984,0.019495,0.033631,,,,0.002746,0.000741,0.004239,,,,,,,0.000301,0.000476,0.024548,1,0.000003,0.000001,0.000005,,0.999955,0.008659,-0.001603,-0.003511,0.992932,-0.180156,-0.403923,0.99997,-0.00705,0.003144,0.006994,0.999825,0.017329,-0.003266,-0.017306,0.999845,,,,,,,30.3,,,
40314,1107789,-0.002658,0.133012,9.768484,-0.03382,-0.036171,-0.018453,,,,0.002847,-0.00342,0.000157,,,,,,,-0.000007,0.000332,0.024421,1,0.000004,-0.000004,0,,0.999955,0.008662,-0.001607,-0.003512,0.993289,-0.180707,-0.403976,0.99997,-0.007051,0.003154,0.006995,0.999825,0.017335,-0.003276,-0.017313,0.999845,,,,,,,30.3,,,
40315,1107814,0.012692,0.148164,9.804225,-0.018424,-0.02174,0.017592,,,,0.001398,-0.000355,-0.000553,,,,-0.219207,-0.274663,0.381316,0.000032,0.00037,0.024511,1,0.000002,0,-0.000001,100252,0.999955,0.008664,-0.001608,-0.003513,0.993439,-0.180817,-0.404124,0.99997,-0.007053,0.003156,0.006997,0.999825,0.017338,-0.003278,-0.017315,0.999845,,,,,,,30.29,,,
40316,1107839,0.091573,0.214468,9.815931,0.060837,0.043816,0.030697,,,,0.000457,-0.000758,0.003212,,,,,,,0.000229,0.000536,0.02454,1,0.000001,-0.000001,0.000004,,0.999955,0.008664,-0.00161,-0.003509,0.993453,-0.180994,-0.403733,0.99997,-0.007046,0.003159,0.006991,0.999825,0.017338,-0.003281,-0.017315,0.999845,,,,,,,30.29,,,
40317,1107864,-0.016672,0.133606,9.79147,-0.047867,-0.035864,0.004493,,,,0.000811,0.000272,-0.000152,,,,,,,-0.000042,0.000334,0.024479,1,0.000001,0,0,,0.999955,0.008664,-0.00161,-0.003509,0.993505,-0.181016,-0.403679,0.99997,-0.007045,0.003159,0.00699,0.999825,0.017339,-0.003281,-0.017316,0.999845,,,,,,,30.29,,,
40318,1107889,0.0361,0.200531,9.794829,0.005432,0.030557,0.009181,,,,0.001846,0.001808,-0.000907,,,,,,,0.00009,0.000501,0.024487,1,0.000002,0.000002,-0.000001,,0.999955,0.008666,-0.001608,-0.003511,0.993719,-0.180816,-0.403872,0.99997,-0.007049,0.003156,0.006993,0.999825,0.017343,-0.003278,-0.01732,0.999845,,,,,,,30.29,,,
40319,1107914,0.069945,0.162271,9.800982,0.038948,-0.008042,0.014775,,,,0.001121,0.000291,-0.000021,,,,-0.216288,-0.278141,0.37938,0.000175,0.000406,0.024502,1,0.000001,0,0,100254,0.999955,0.008667,-0.001609,-0.003511,0.993829,-0.180835,-0.403942,0.99997,-0.00705,0.003156,0.006994,0.999825,0.017345,-0.003278,-0.017322,0.999845,,,,,,,30.29,,,
40320,1107939,-0.007236,0.159251,9.810851,-0.03828,-0.010914,0.024344,,,,0.005329,0.000543,0.004228,,,,,,,-0.000018,0.000398,0.024527,1,0.000007,0.000001,0.000005,,0.999955,0.008673,-0.001609,-0.003507,0.99454,-0.180828,-0.403402,0.99997,-0.007041,0.003156,0.006985,0.999825,0.017357,-0.003278,-0.017334,0.999844,,,,,,,30.29,,,
40321,1107964,0.060801,0.177735,9.809162,0.030194,0.007269,0.02319,,,,-0.000255,0.006656,0.0015,,,,,,,0.000152,0.000444,0.024523,1,0,0.000008,0.000002,,0.999955,0.008672,-0.001601,-0.003504,0.99444,-0.17994,-0.403075,0.99997,-0.007035,0.003141,0.006979,0.999825,0.017355,-0.003262,-0.017333,0.999844,,,,,,,30.29,,,
40322,1107989,0.015548,0.177228,9.806895,-0.015376,0.007102,0.020773,,,,0.000458,-0.003026,0.000397,,,,,,,0.000039,0.000443,0.024517,1,0.000001,-0.000004,0,,0.999955,0.008673,-0.001605,-0.003504,0.994455,-0.180435,-0.403093,0.99997,-0.007035,0.003149,0.00698,0.999825,0.017356,-0.003271,-0.017333,0.999844,,,,,,,30.29,,,
40323,1108014,-0.015931,0.155093,9.807634,-0.046889,-0.014757,0.021029,,,,-0.000912,0.001188,0.00137,,,,-0.219678,-0.276149,0.378349,-0.00004,0.000388,0.024519,1,-0.000001,0.000001,0.000002,100251,0.999955,0.008671,-0.001604,-0.003503,0.994273,-0.180329,-0.402961,0.99997,-0.007033,0.003147,0.006977,0.999825,0.017352,-0.003269,-0.01733,0.999844,,,,,,,30.29,,,
40324,1108039,0.044352,0.165542,9.805726,0.013276,-0.004776,0.019493,,,,0.001284,-0.003169,0.000948,,,,,,,0.000111,0.000414,0.024514,1,0.000002,-0.000004,0.000001,,0.999955,0.008672,-0.001609,-0.003502,0.994406,-0.180846,-0.402901,0.99997,-0.007032,0.003156,0.006976,0.999825,0.017355,-0.003278,-0.017332,0.999844,,,,,,,30.29,,,
40325,1108064,0.011717,0.150008,9.802506,-0.019268,-0.020113,0.015904,,,,0.002704,0.002477,0.000163,,,,,,,0.000029,0.000375,0.024506,1,0.000003,0.000003,0,,0.999955,0.008675,-0.001606,-0.003501,0.994729,-0.180552,-0.402768,0.999971,-0.00703,0.003151,0.006974,0.999825,0.01736,-0.003273,-0.017338,0.999845,,,,,,,30.29,,,
40326,1108089,-0.024529,0.180864,9.79743,-0.055312,0.011204,0.011249,,,,-0.000992,0.000853,0.002503,,,,,,,-0.000061,0.000452,0.024494,1,-0.000001,0.000001,0.000003,,0.999955,0.008673,-0.001606,-0.003498,0.994535,-0.180497,-0.402475,0.999971,-0.007024,0.00315,0.006969,0.999825,0.017357,-0.003272,-0.017334,0.999845,,,,,,,30.29,,,
40327,1108114,0.045352,0.150006,9.779836,0.014513,-0.01979,-0.00666,,,,-0.001235,0.002763,0.001959,,,,-0.217304,-0.273194,0.380338,0.000114,0.000375,0.02445,1,-0.000002,0.000003,0.000002,100254,0.999955,0.008671,-0.001603,-0.003497,0.994307,-0.180167,-0.402255,0.999971,-0.007021,0.003144,0.006965,0.999825,0.017353,-0.003266,-0.017331,0.999845,,,,,,,30.3,,,
40328,1108139,0.002667,0.099719,9.78539,-0.028705,-0.069958,-0.002113,,,,0.001483,-0.001797,0.000275,,,,,,,0.000007,0.000249,0.024463,1,0.000002,-0.000002,0,,0.999955,0.008673,-0.001605,-0.003497,0.994469,-0.180485,-0.402288,0.999971,-0.007021,0.00315,0.006965,0.999825,0.017356,-0.003271,-0.017333,0.999845,,,,,,,30.3,,,
40329,1108164,0.058581,0.173879,9.786842,0.027702,0.003723,0.000804,,,,0.001971,-0.001027,0.0012,,,,,,,0.000146,0.000435,0.024467,1,0.000002,-0.000001,0.000002,,0.999955,0.008675,-0.001607,-0.003495,0.994686,-0.180696,-0.402062,0.999971,-0.007017,0.003154,0.006961,0.999825,0.01736,-0.003275,-0.017337,0.999845,,,,,,,30.3,,,
40330,1108189,0.010765,0.162365,9.83517,-0.020361,-0.00843,0.048772,,,,0.003964,-0.000465,0.001029,,,,,,,0.000027,0.000406,0.024588,1,0.000005,-0.000001,0.000001,,0.999955,0.008679,-0.001608,-0.003494,0.995203,-0.180826,-0.401983,0.999971,-0.007016,0.003156,0.00696,0.999825,0.017369,-0.003277,-0.017346,0.999844,,,,,,,30.3,,,
40331,1108214,0.099915,0.11302,9.785412,0.06857,-0.057727,-0.001555,,,,0.006249,-0.000712,0.001981,,,,-0.218735,-0.274673,0.377856,0.00025,0.000282,0.024464,1,0.000008,-0.000001,0.000002,100257,0.999955,0.008686,-0.00161,-0.003492,0.996047,-0.180994,-0.401769,0.999971,-0.007012,0.003159,0.006956,0.999825,0.017383,-0.00328,-0.017361,0.999844,,,,,,,30.29,,,
40332,1108239,-0.019939,0.175648,9.784625,-0.05082,0.0058,-0.001631,,,,0.002141,0.000352,0.002869,,,,,,,-0.00005,0.000439,0.024462,1,0.000003,0,0.000004,,0.999955,0.008689,-0.00161,-0.003489,0.996302,-0.181011,-0.401424,0.999971,-0.007006,0.003159,0.00695,0.999825,0.017388,-0.00328,-0.017365,0.999844,,,,,,,30.29,,,
40333,1108264,0.075075,0.149768,9.793878,0.044019,-0.020778,0.007471,,,,-0.001241,0.001109,0.000326,,,,,,,0.000188,0.000374,0.024485,1,-0.000002,0.000001,0,,0.999955,0.008687,-0.001609,-0.003488,0.99606,-0.180914,-0.401303,0.999971,-0.007004,0.003158,0.006948,0.999825,0.017384,-0.003279,-0.017361,0.999844,,,,,,,30.29,,,
40334,1108289,-0.01958,0.210363,9.817814,-0.050174,0.039972,0.032158,,,,0.001211,0.003246,0.003471,,,,,,,-0.000049,0.000526,0.024545,1,0.000002,0.000004,0.000004,,0.999955,0.008688,-0.001606,-0.003484,0.996181,-0.180518,-0.400865,0.999971,-0.006996,0.003151,0.006941,0.999825,0.017386,-0.003272,-0.017363,0.999844,,,,,,,30.29,,,
40335,1108314,0.057707,0.131749,9.79321,0.026587,-0.038606,0.006434,,,,-0.002001,0.000521,-0.00394,,,,-0.21821,-0.27813,0.379857,0.000144,0.000329,0.024483,1,-0.000003,0.000001,-0.000005,100254,0.999955,0.008685,-0.001605,-0.00349,0.995846,-0.180495,-0.401496,0.999971,-0.007007,0.00315,0.006952,0.999825,0.01738,-0.003271,-0.017357,0.999844,,,,,,,30.29,,,
40336,1108339,0.025275,0.212411,9.782813,-0.005232,0.042259,-0.002661,,,,0.003078,0.000867,-0.000352,,,,,,,0.000063,0.000531,0.024457,1,0.000004,0.000001,0,,0.999955,0.008688,-0.001605,-0.003491,0.996237,-0.18043,-0.401611,0.999971,-0.007009,0.003149,0.006954,0.999825,0.017387,-0.00327,-0.017364,0.999844,,,,,,,30.29,,,
40337,1108364,0.015346,0.132822,9.787796,-0.015889,-0.037387,0.000907,,,,0.002865,-0.002636,-0.002953,,,,,,,0.000038,0.000332,0.024469,1,0.000004,-0.000003,-0.000004,,0.999955,0.008691,-0.001609,-0.003494,0.996583,-0.180861,-0.401967,0.999971,-0.007016,0.003157,0.00696,0.999825,0.017393,-0.003278,-0.01737,0.999844,,,,,,,30.29,,,
40338,1108389,0.046603,0.231405,9.834099,0.015971,0.06029,0.049016,,,,-0.001138,0.000363,0.001786,,,,,,,0.000117,0.000579,0.024585,1,-0.000001,0,0.000002,,0.999955,0.008689,-0.001609,-0.003492,0.996369,-0.180874,-0.401778,0.999971,-0.007012,0.003157,0.006956,0.999825,0.017389,-0.003278,-0.017366,0.999844,,,,,,,30.29,,,
40339,1108414,0.043807,0.127281,9.796431,0.012681,-0.042997,0.009534,,,,-0.003354,0.002568,0.00189,,,,-0.220145,-0.277132,0.379339,0.00011,0.000318,0.024491,1,-0.000004,0.000003,0.000002,100258,0.999955,0.008685,-0.001606,-0.003491,0.995837,-0.180571,-0.401568,0.999971,-0.007009,0.003152,0.006953,0.999825,0.01738,-0.003273,-0.017357,0.999844,,,,,,,30.29,,,
40340,1108439,-0.00938,0.158797,9.806085,-0.040275,-0.011424,0.019567,,,,0.001398,0.002382,0.001153,,,,,,,-0.000023,0.000397,0.024515,1,0.000002,0.000003,0.000001,,0.999955,0.008686,-0.001604,-0.00349,0.995987,-0.180294,-0.401465,0.999971,-0.007007,0.003147,0.006951,0.999825,0.017382,-0.003268,-0.01736,0.999844,,,,,,,30.29,,,
40341,1108464,0.043942,0.172924,9.794116,0.013255,0.002534,0.008013,,,,0.00094,0.002856,-0.000212,,,,,,,0.00011,0.000432,0.024485,1,0.000001,0.000004,0,,0.999955,0.008687,-0.001601,-0.003489,0.996057,-0.179945,-0.401422,0.999971,-0.007006,0.003141,0.00695,0.999825,0.017384,-0.003262,-0.017361,0.999844,,,,,,,30.29,,,
40342,1108489,-0.02318,0.118576,9.780643,-0.054317,-0.051328,-0.006615,,,,0.005317,-0.00076,-0.002012,,,,,,,-0.000058,0.000296,0.024452,1,0.000007,-0.000001,-0.000003,,0.999955,0.008693,-0.001602,-0.003492,0.996769,-0.18011,-0.40178,0.999971,-0.007012,0.003144,0.006957,0.999825,0.017396,-0.003265,-0.017374,0.999844,,,,,,,30.29,,,
40343,1108514,0.03556,0.187255,9.801793,0.004862,0.016648,0.01591,,,,0.001013,0.000467,-0.000383,,,,-0.216793,-0.275666,0.380849,0.000089,0.000468,0.024504,1,0.000001,0.000001,0,100252,0.999955,0.008694,-0.001602,-0.003493,0.996864,-0.180103,-0.401901,0.999971,-0.007014,0.003143,0.006959,0.999825,0.017398,-0.003265,-0.017375,0.999844,,,,,,,30.3,,,
40344,1108539,-0.001012,0.143712,9.777427,-0.031744,-0.026257,-0.009323,,,,0.001679,0.00431,-0.000606,,,,,,,-0.000002,0.000359,0.024444,1,0.000002,0.000005,-0.000001,,0.999955,0.008695,-0.001597,-0.003495,0.997054,-0.179545,-0.402045,0.999971,-0.007017,0.003134,0.006961,0.999824,0.017401,-0.003255,-0.017379,0.999844,,,,,,,30.3,,,
40345,1108564,0.034425,0.126068,9.78508,0.003386,-0.044258,-0.001868,,,,0.000639,-0.000879,-0.00018,,,,,,,0.000086,0.000315,0.024463,1,0.000001,-0.000001,0,,0.999955,0.008696,-0.001599,-0.003494,0.997081,-0.17973,-0.401983,0.999971,-0.007016,0.003137,0.00696,0.999824,0.017401,-0.003258,-0.017379,0.999844,,,,,,,30.3,,,
40346,1108589,-0.021307,0.166336,9.818004,-0.052177,-0.004327,0.031577,,,,0.003522,-0.000274,0.001218,,,,,,,-0.000053,0.000416,0.024545,1,0.000004,0,0.000002,,0.999955,0.008699,-0.0016,-0.003493,0.997535,-0.179833,-0.401877,0.999971,-0.007014,0.003139,0.006958,0.999824,0.017409,-0.00326,-0.017387,0.999844,,,,,,,30.3,,,
40347,1108614,0.125902,0.11061,9.814525,0.094663,-0.060983,0.027589,,,,0.001285,0.000279,-0.000298,,,,-0.218204,-0.278624,0.379859,0.000315,0.000276,0.024536,1,0.000002,0,0,100244,0.999955,0.008701,-0.0016,-0.003494,0.997669,-0.179853,-0.401986,0.999971,-0.007016,0.003139,0.00696,0.999824,0.017412,-0.003261,-0.017389,0.999844,,,,,,,30.29,,,
40348,1108639,0.007175,0.220131,9.819293,-0.02328,0.049263,0.033892,,,,0.000937,0.001047,0.000384,,,,,,,0.000018,0.00055,0.024548,1,0.000001,0.000001,0,,0.999955,0.008701,-0.001599,-0.003494,0.997752,-0.179765,-0.401996,0.999971,-0.007016,0.003137,0.00696,0.999824,0.017413,-0.003259,-0.017391,0.999844,,,,,,,30.29,,,
40349,1108664,0.050852,0.123537,9.782936,0.019908,-0.046742,-0.004003,,,,-0.004368,0.002039,-0.001213,,,,,,,0.000127,0.000309,0.024457,1,-0.000005,0.000003,-0.000002,,0.999955,0.008695,-0.001597,-0.003495,0.997063,-0.179531,-0.402097,0.999971,-0.007018,0.003133,0.006962,0.999824,0.017401,-0.003255,-0.017379,0.999844,,,,,,,30.29,,,
40350,1108689,0.016329,0.201685,9.821246,-0.014252,0.030763,0.035554,,,,0.002217,0.000107,0.000846,,,,,,,0.000041,0.000504,0.024553,1,0.000003,0,0.000001,,0.999955,0.008698,-0.001598,-0.003495,0.99733,-0.179578,-0.402043,0.999971,-0.007017,0.003134,0.006961,0.999824,0.017406,-0.003256,-0.017383,0.999844,,,,,,,30.29,,,
40351,1108714,0.041572,0.162459,9.795712,0.010566,-0.008221,0.009419,,,,0.001953,-0.004523,0.000084,,,,-0.216783,-0.277153,0.378381,0.000104,0.000406,0.024489,1,0.000002,-0.000006,0,100252,0.999955,0.0087,-0.001604,-0.003495,0.997559,-0.180287,-0.402109,0.999971,-0.007018,0.003147,0.006962,0.999824,0.01741,-0.003268,-0.017387,0.999844,,,,,,,30.29,,,
40352,1108739,0.01651,0.193536,9.817791,-0.014178,0.022628,0.031957,,,,0.00143,0.001494,0.000129,,,,,,,0.000041,0.000484,0.024544,1,0.000002,0.000002,0,,0.999955,0.008701,-0.001602,-0.003496,0.997713,-0.180134,-0.402155,0.999971,-0.007019,0.003144,0.006963,0.999824,0.017412,-0.003266,-0.01739,0.999844,,,,,,,30.29,,,
40353,1108764,0.005774,0.149024,9.791231,-0.025145,-0.021366,0.004591,,,,0.001483,0.000793,-0.000322,,,,,,,0.000014,0.000372,0.024478,1,0.000002,0.000001,0,,0.999955,0.008702,-0.001602,-0.003495,0.997862,-0.18008,-0.402101,0.999971,-0.007018,0.003143,0.006962,0.999824,0.017415,-0.003265,-0.017393,0.999844,,,,,,,30.29,,,
40354,1108789,0.021601,0.201296,9.766386,-0.008999,0.031123,-0.019287,,,,0.002884,-0.002019,-0.002709,,,,,,,0.000054,0.000503,0.024416,1,0.000004,-0.000003,-0.000003,,0.999955,0.008705,-0.001605,-0.003499,0.998226,-0.180423,-0.402562,0.999971,-0.007026,0.003149,0.00697,0.999824,0.017421,-0.003271,-0.017399,0.999844,,,,,,,30.29,,,
40355,1108814,-0.003899,0.140506,9.827826,-0.035061,-0.030622,0.041004,,,,0.003158,0.000537,0.000244,,,,-0.219179,-0.276635,0.383305,-0.00001,0.000351,0.02457,1,0.000004,0.000001,0,100261,0.999955,0.008709,-0.001605,-0.003499,0.998628,-0.180408,-0.402593,0.999971,-0.007026,0.003149,0.006971,0.999824,0.017428,-0.003271,-0.017406,0.999843,,,,,,,30.3,,,
40356,1108839,0.062702,0.20429,9.810521,0.03207,0.033189,0.025021,,,,-0.002384,0.001047,-0.00139,,,,,,,0.000157,0.000511,0.024526,1,-0.000003,0.000001,-0.000002,,0.999955,0.008705,-0.001604,-0.0035,0.998222,-0.180315,-0.402711,0.999971,-0.007029,0.003147,0.006973,0.999824,0.017421,-0.003269,-0.017399,0.999844,,,,,,,30.3,,,
40357,1108864,0.021822,0.130817,9.784579,-0.009334,-0.039623,-0.002325,,,,0.000817,-0.001283,-0.001918,,,,,,,0.000054,0.000327,0.024461,1,0.000001,-0.000002,-0.000002,,0.999955,0.008706,-0.001606,-0.003503,0.99829,-0.180555,-0.403056,0.999971,-0.007035,0.003151,0.006979,0.999824,0.017422,-0.003273,-0.0174,0.999844,,,,,,,30.3,,,
40358,1108889,0.016847,0.151022,9.817288,-0.014286,-0.020084,0.030716,,,,0.003228,-0.000533,0.00449,,,,,,,0.000042,0.000377,0.024543,1,0.000004,-0.000001,0.000006,,0.999955,0.00871,-0.001607,-0.003498,0.9987,-0.180703,-0.402482,0.999971,-0.007025,0.003154,0.006969,0.999824,0.01743,-0.003276,-0.017407,0.999843,,,,,,,30.3,,,
40359,1108914,0.002974,0.167106,9.807203,-0.028044,-0.003734,0.020869,,,,0.001871,-0.000697,0.000594,,,,-0.217265,-0.277151,0.377882,0.000007,0.000418,0.024518,1,0.000002,-0.000001,0.000001,100245,0.999955,0.008711,-0.001609,-0.003498,0.998917,-0.180865,-0.402466,0.999971,-0.007024,0.003157,0.006968,0.999824,0.017433,-0.003279,-0.017411,0.999843,,,,,,,30.29,,,
40360,1108939,0.022063,0.160852,9.791017,-0.009005,-0.009813,0.004636,,,,0.000585,-0.001429,-0.004412,,,,,,,0.000055,0.000402,0.024478,1,0.000001,-0.000002,-0.000006,,0.999955,0.008712,-0.001611,-0.003504,0.998952,-0.181119,-0.403169,0.999971,-0.007037,0.003161,0.00698,0.999824,0.017434,-0.003283,-0.017411,0.999843,,,,,,,30.29,,,
40361,1108964,0.022916,0.110103,9.778976,-0.008641,-0.060278,-0.008286,,,,-0.000918,-0.004031,0.001363,,,,,,,0.000057,0.000275,0.024447,1,-0.000001,-0.000005,0.000002,,0.999955,0.00871,-0.001617,-0.003502,0.998757,-0.181761,-0.402889,0.99997,-0.007032,0.003172,0.006975,0.999824,0.017431,-0.003294,-0.017408,0.999843,,,,,,,30.29,,,
40362,1108989,0.02492,0.115684,9.805226,-0.006369,-0.055287,0.018063,,,,0.00209,0.004645,-0.001834,,,,,,,0.000063,0.000289,0.024513,1,0.000003,0.000006,-0.000002,,0.999955,0.008712,-0.001611,-0.003505,0.999006,-0.181152,-0.403208,0.99997,-0.007037,0.003162,0.006981,0.999824,0.017435,-0.003284,-0.017412,0.999843,,,,,,,30.29,,,
40363,1109014,0.05812,0.196812,9.816835,0.027247,0.025361,0.03119,,,,0.001853,0.00029,0.001345,,,,-0.21777,-0.274675,0.37935,0.000145,0.000492,0.024542,1,0.000002,0,0.000002,100254,0.999955,0.008714,-0.001612,-0.003504,0.999221,-0.181174,-0.403082,0.99997,-0.007035,0.003162,0.006979,0.999824,0.017439,-0.003284,-0.017416,0.999843,,,,,,,30.3,,,
40364,1109039,-0.033083,0.104414,9.80351,-0.064543,-0.066115,0.015965,,,,0.000448,0.000563,-0.0009,,,,,,,-0.000083,0.000261,0.024509,1,0.000001,0.000001,-0.000001,,0.999955,0.008714,-0.001611,-0.003505,0.999235,-0.181152,-0.403277,0.99997,-0.007038,0.003162,0.006982,0.999824,0.017439,-0.003284,-0.017416,0.999843,,,,,,,30.3,,,
40365,1109064,0.099991,0.189377,9.827615,0.069116,0.017543,0.041969,,,,-0.000937,0.002021,0.000144,,,,,,,0.00025,0.000473,0.024569,1,-0.000001,0.000003,0,,0.999955,0.008713,-0.001609,-0.003504,0.999036,-0.180924,-0.403145,0.99997,-0.007036,0.003158,0.00698,0.999824,0.017436,-0.00328,-0.017413,0.999843,,,,,,,30.3,,,
40366,1109089,0.012228,0.161558,9.796977,-0.018793,-0.009144,0.010574,,,,0.000229,0.000121,0.001446,,,,,,,0.000031,0.000404,0.024492,1,0,0,0.000002,,0.999955,0.008712,-0.00161,-0.003503,0.999018,-0.180971,-0.403005,0.99997,-0.007034,0.003159,0.006978,0.999824,0.017435,-0.003281,-0.017413,0.999843,,,,,,,30.3,,,
40367,1109114,0.04094,0.161308,9.8053,0.009918,-0.00962,0.01898,,,,-0.002199,0.000835,-0.000128,,,,-0.217259,-0.277645,0.377884,0.000102,0.000403,0.024513,1,-0.000003,0.000001,0,100248,0.999955,0.008709,-0.001609,-0.003504,0.998653,-0.180912,-0.403088,0.99997,-0.007035,0.003158,0.006979,0.999824,0.017429,-0.00328,-0.017406,0.999843,,,,,,,30.29,,,
40368,1109139,0.057879,0.181844,9.816835,0.026948,0.010448,0.030928,,,,0.002035,0.000405,0.002306,,,,,,,0.000145,0.000454,0.024542,1,0.000003,0.000001,0.000003,,0.999955,0.008711,-0.001609,-0.003501,0.998893,-0.18092,-0.402825,0.99997,-0.007031,0.003158,0.006974,0.999824,0.017433,-0.00328,-0.01741,0.999843,,,,,,,30.29,,,
40369,1109164,-0.020791,0.140986,9.820986,-0.052179,-0.029878,0.034117,,,,0.000376,-0.002889,0.00016,,,,,,,-0.000052,0.000352,0.024552,1,0,-0.000004,0,,0.999955,0.008711,-0.001614,-0.0035,0.998882,-0.181395,-0.402704,0.99997,-0.007028,0.003166,0.006972,0.999824,0.017433,-0.003288,-0.01741,0.999843,,,,,,,30.29,,,
40370,1109189,0.055582,0.202776,9.783055,0.024748,0.032135,-0.002491,,,,-0.001892,-0.001238,0.000194,,,,,,,0.000139,0.000507,0.024458,1,-0.000002,-0.000002,0,,0.999955,0.008708,-0.001616,-0.003501,0.99856,-0.181634,-0.402747,0.99997,-0.007029,0.00317,0.006973,0.999824,0.017427,-0.003292,-0.017405,0.999843,,,,,,,30.29,,,
40371,1109214,-0.061839,0.169248,9.800961,-0.09286,-0.000758,0.014457,,,,-0.003149,0.001655,0.000326,,,,-0.219161,-0.279114,0.379357,-0.000154,0.000423,0.024502,1,-0.000004,0.000002,0,100253,0.999955,0.008704,-0.001614,-0.003501,0.998059,-0.181458,-0.402764,0.99997,-0.007029,0.003167,0.006973,0.999824,0.017418,-0.003289,-0.017396,0.999843,,,,,,,30.29,,,
40372,1109239,0.042989,0.179057,9.810473,0.012042,0.008165,0.024469,,,,-0.001764,0.001916,0.002127,,,,,,,0.000108,0.000448,0.024526,1,-0.000002,0.000002,0.000003,,0.999955,0.008701,-0.001612,-0.003499,0.997755,-0.18125,-0.402522,0.99997,-0.007025,0.003163,0.006969,0.999824,0.017413,-0.003285,-0.017391,0.999843,,,,,,,30.29,,,
40373,1109264,0.036839,0.204273,9.813428,0.005947,0.033345,0.027844,,,,-0.000152,-0.001112,0.000077,,,,,,,0.000092,0.000511,0.024534,1,0,-0.000001,0,,0.999955,0.008701,-0.001614,-0.003498,0.997669,-0.181471,-0.40241,0.99997,-0.007023,0.003167,0.006967,0.999824,0.017412,-0.003289,-0.017389,0.999843,,,,,,,30.29,,,
40374,1109289,0.02569,0.129691,9.799671,-0.005588,-0.040885,0.012756,,,,-0.000376,0.001446,-0.001107,,,,,,,0.000064,0.000324,0.024499,1,0,0.000002,-0.000001,,0.999955,0.0087,-0.001613,-0.0035,0.997565,-0.181321,-0.402632,0.99997,-0.007027,0.003165,0.006971,0.999824,0.01741,-0.003286,-0.017387,0.999843,,,,,,,30.29,,,
40375,1109314,0.028114,0.162894,9.811401,-0.002834,-0.007874,0.02507,,,,-0.000712,0.003739,0.000872,,,,-0.218688,-0.278624,0.37837,0.000071,0.000407,0.024529,1,-0.000001,0.000005,0.000001,100254,0.999955,0.008698,-0.001609,-0.003499,0.997413,-0.180849,-0.402565,0.99997,-0.007026,0.003156,0.00697,0.999824,0.017407,-0.003278,-0.017385,0.999844,,,,,,,30.3,,,
40376,1109339,0.032754,0.146765,9.802125,0.001583,-0.024012,0.01553,,,,0.002705,-0.000763,0.001293,,,,,,,0.000082,0.000367,0.024505,1,0.000003,-0.000001,0.000002,,0.999955,0.008701,-0.00161,-0.003498,0.997749,-0.181022,-0.40245,0.99997,-0.007024,0.003159,0.006968,0.999824,0.017413,-0.003281,-0.017391,0.999843,,,,,,,30.3,,,
40377,1109364,0.041408,0.155316,9.790206,0.010451,-0.015213,0.003788,,,,-0.000532,0.002215,0.002321,,,,,,,0.000104,0.000388,0.024476,1,-0.000001,0.000003,0.000003,,0.999955,0.0087,-0.001608,-0.003494,0.997607,-0.180771,-0.402011,0.999971,-0.007016,0.003155,0.00696,0.999824,0.017411,-0.003277,-0.017388,0.999844,,,,,,,30.3,,,
40378,1109389,0.018521,0.143966,9.794188,-0.012534,-0.026397,0.007501,,,,-0.001591,0.001133,0.000546,,,,,,,0.000046,0.00036,0.024485,1,-0.000002,0.000001,0.000001,,0.999955,0.008698,-0.001607,-0.003494,0.997329,-0.180671,-0.401998,0.99997,-0.007016,0.003153,0.00696,0.999824,0.017406,-0.003275,-0.017383,0.999844,,,,,,,30.3,,,
40379,1109414,0.00004,0.109594,9.790564,-0.031217,-0.060586,0.00322,,,,-0.000283,0.001299,-0.00069,,,,-0.219653,-0.278123,0.379348,0,0.000274,0.024476,1,0,0.000002,-0.000001,100249,0.999955,0.008697,-0.001606,-0.003496,0.997238,-0.180544,-0.402161,0.99997,-0.007019,0.003151,0.006963,0.999824,0.017404,-0.003273,-0.017382,0.999844,,,,,,,30.29,,,
40380,1109439,0.056305,0.184125,9.817527,0.025405,0.012986,0.031654,,,,0.001708,-0.000548,0.002541,,,,,,,0.000141,0.00046,0.024544,1,0.000002,-0.000001,0.000003,,0.999955,0.008699,-0.001607,-0.003493,0.997431,-0.18069,-0.401865,0.999971,-0.007014,0.003154,0.006958,0.999824,0.017407,-0.003275,-0.017385,0.999844,,,,,,,30.29,,,
40381,1109464,0.010773,0.166391,9.809111,-0.020162,-0.004366,0.022787,,,,0.002845,0.001145,0.000788,,,,,,,0.000027,0.000416,0.024523,1,0.000004,0.000001,0.000001,,0.999955,0.008702,-0.001606,-0.003491,0.997774,-0.180588,-0.401654,0.999971,-0.00701,0.003152,0.006954,0.999824,0.017413,-0.003273,-0.017391,0.999844,,,,,,,30.29,,,
40382,1109489,0.07546,0.167965,9.799886,0.044621,-0.003053,0.013795,,,,0.000968,0.001987,0.002845,,,,,,,0.000189,0.00042,0.0245,1,0.000001,0.000002,0.000004,,0.999955,0.008702,-0.001604,-0.003488,0.997861,-0.180371,-0.401309,0.999971,-0.007004,0.003148,0.006948,0.999824,0.017415,-0.003269,-0.017393,0.999844,,,,,,,30.29,,,
40383,1109514,0.03161,0.144568,9.804962,0.000495,-0.02632,0.018325,,,,0.002546,-0.000849,-0.002795,,,,-0.217259,-0.277147,0.379862,0.000079,0.000361,0.024512,1,0.000003,-0.000001,-0.000003,100254,0.999955,0.008705,-0.001606,-0.003492,0.998176,-0.180546,-0.401779,0.999971,-0.007012,0.003151,0.006956,0.999824,0.01742,-0.003273,-0.017398,0.999843,,,,,,,30.3,,,
40384,1109539,0.052034,0.201322,9.798452,0.021416,0.030224,0.01287,,,,0.004903,0.001443,-0.001526,,,,,,,0.00013,0.000503,0.024496,1,0.000006,0.000002,-0.000002,,0.999955,0.008711,-0.001605,-0.003495,0.998828,-0.180397,-0.402062,0.999971,-0.007017,0.003149,0.006961,0.999824,0.017432,-0.00327,-0.017409,0.999843,,,,,,,30.3,,,
40385,1109564,0.023693,0.161388,9.805679,-0.007356,-0.00955,0.019309,,,,0.001075,-0.001708,0.000269,,,,,,,0.000059,0.000403,0.024514,1,0.000001,-0.000002,0,,0.999955,0.008712,-0.001607,-0.003494,0.998918,-0.180702,-0.401925,0.999971,-0.007015,0.003154,0.006959,0.999824,0.017433,-0.003276,-0.017411,0.999843,,,,,,,30.3,,,
40386,1109589,0.023255,0.196763,9.799385,-0.007562,0.025927,0.013631,,,,0.000805,-0.001308,0.001209,,,,,,,0.000058,0.000492,0.024498,1,0.000001,-0.000002,0.000002,,0.999955,0.008712,-0.00161,-0.003493,0.998983,-0.180953,-0.401823,0.999971,-0.007013,0.003158,0.006957,0.999824,0.017435,-0.00328,-0.017412,0.999843,,,,,,,30.3,,,
40387,1109614,-0.002655,0.18271,9.781955,-0.03352,0.012275,-0.004124,,,,0.002352,-0.000581,0.001479,,,,-0.222526,-0.279095,0.379325,-0.000007,0.000457,0.024455,1,0.000003,-0.000001,0.000002,100246,0.999955,0.008715,-0.001611,-0.003491,0.999268,-0.181101,-0.40168,0.999971,-0.007011,0.003161,0.006954,0.999824,0.01744,-0.003283,-0.017417,0.999843,,,,,,,30.29,,,
40388,1109639,0.025228,0.188798,9.795787,-0.005593,0.018098,0.009899,,,,-0.002164,0.000856,0.000153,,,,,,,0.000063,0.000472,0.024489,1,-0.000003,0.000001,0,,0.999955,0.008711,-0.00161,-0.003492,0.998908,-0.18104,-0.401723,0.999971,-0.007011,0.00316,0.006955,0.999824,0.017433,-0.003281,-0.017411,0.999843,,,,,,,30.29,,,
40389,1109664,-0.002927,0.141921,9.790562,-0.034051,-0.028649,0.003771,,,,0.002519,0.00078,0.001731,,,,,,,-0.000007,0.000355,0.024476,1,0.000003,0.000001,0.000002,,0.999955,0.008714,-0.00161,-0.003489,0.999204,-0.180993,-0.401381,0.999971,-0.007005,0.003159,0.006949,0.999824,0.017438,-0.003281,-0.017416,0.999843,,,,,,,30.29,,,
40390,1109689,0.030196,0.177198,9.809041,-0.000702,0.006127,0.022967,,,,0.000232,0.001416,-0.001317,,,,,,,0.000076,0.000443,0.024523,1,0,0.000002,-0.000002,,0.999955,0.008714,-0.001609,-0.003491,0.999187,-0.180848,-0.401634,0.999971,-0.00701,0.003156,0.006954,0.999824,0.017438,-0.003278,-0.017416,0.999843,,,,,,,30.29,,,
40391,1109714,0.036675,0.154215,9.805846,0.005617,-0.016744,0.019393,,,,-0.001685,0.000717,0.000874,,,,-0.215832,-0.276668,0.376408,0.000092,0.000386,0.024515,1,-0.000002,0.000001,0.000001,100250,0.999955,0.008711,-0.001608,-0.00349,0.998895,-0.180808,-0.401574,0.999971,-0.007009,0.003156,0.006953,0.999824,0.017433,-0.003277,-0.017411,0.999843,,,,,,,30.3,,,
40392,1109739,0.004166,0.13311,9.795547,-0.027019,-0.037473,0.008622,,,,0.000026,0.00027,-0.000423,,,,,,,0.00001,0.000333,0.024489,1,0,0,-0.000001,,0.999955,0.008711,-0.001609,-0.003492,0.998849,-0.180829,-0.401702,0.999971,-0.007011,0.003156,0.006955,0.999824,0.017432,-0.003278,-0.01741,0.999843,,,,,,,30.3,,,
40393,1109764,0.084377,0.14662,9.816647,0.053148,-0.024868,0.030208,,,,-0.000298,-0.000982,0.00179,,,,,,,0.000211,0.000367,0.024542,1,0,-0.000001,0.000002,,0.999955,0.00871,-0.00161,-0.003489,0.99874,-0.181034,-0.401361,0.999971,-0.007005,0.00316,0.006949,0.999824,0.01743,-0.003281,-0.017408,0.999843,,,,,,,30.3,,,
40394,1109789,0.005373,0.145432,9.795382,-0.025603,-0.025029,0.008675,,,,-0.002091,0.003573,0.001813,,,,,,,0.000014,0.000364,0.024488,1,-0.000003,0.000004,0.000002,,0.999955,0.008707,-0.001606,-0.003487,0.99839,-0.180588,-0.40116,0.99997,-0.007001,0.003152,0.006946,0.999824,0.017424,-0.003273,-0.017402,0.999843,,,,,,,30.3,,,
40395,1109814,-0.000516,0.132708,9.818196,-0.031626,-0.03811,0.031247,,,,-0.000796,0.002594,0.000986,,,,-0.220149,-0.277135,0.377854,-0.000001,0.000332,0.024545,1,-0.000001,0.000003,0.000001,100252,0.999955,0.008705,-0.001604,-0.003486,0.998225,-0.18028,-0.401079,0.99997,-0.007,0.003146,0.006944,0.999824,0.017421,-0.003268,-0.017399,0.999843,,,,,,,30.3,,,
40396,1109839,0.087498,0.175224,9.800148,0.056669,0.004113,0.014218,,,,-0.00058,0.000026,-0.001378,,,,,,,0.000219,0.000438,0.0245,1,-0.000001,0,-0.000002,,0.999955,0.008704,-0.001604,-0.003489,0.998092,-0.180333,-0.401344,0.99997,-0.007005,0.003147,0.006949,0.999824,0.017419,-0.003269,-0.017397,0.999843,,,,,,,30.3,,,
40397,1109864,-0.012855,0.149537,9.824373,-0.043988,-0.021101,0.037678,,,,-0.003855,-0.000748,0.001981,,,,,,,-0.000032,0.000374,0.024561,1,-0.000005,-0.000001,0.000002,,0.999955,0.008699,-0.001606,-0.003485,0.997475,-0.180505,-0.400976,0.999971,-0.006998,0.00315,0.006942,0.999824,0.017408,-0.003272,-0.017386,0.999844,,,,,,,30.3,,,
40398,1109889,0.033235,0.135462,9.779548,0.002301,-0.034932,-0.00724,,,,0.002626,0.002947,0.001339,,,,,,,0.000083,0.000338,0.024449,1,0.000003,0.000004,0.000002,,0.999955,0.008702,-0.001602,-0.003484,0.9978,-0.180147,-0.400844,0.999971,-0.006996,0.003144,0.00694,0.999824,0.017414,-0.003265,-0.017392,0.999843,,,,,,,30.3,,,
40399,1109914,0.023847,0.209761,9.796953,-0.00672,0.039142,0.011427,,,,0.00098,-0.000171,0.001774,,,,-0.219189,-0.276643,0.379346,0.00006,0.000524,0.024492,1,0.000001,0,0.000002,100248,0.999955,0.008703,-0.001603,-0.003483,0.997889,-0.180237,-0.400658,0.999971,-0.006993,0.003146,0.006937,0.999824,0.017415,-0.003267,-0.017393,0.999843,,,,,,,30.3,,,
40400,1109939,0.059593,0.126258,9.829949,0.028355,-0.045263,0.043077,,,,0.002543,0.00046,-0.00077,,,,,,,0.000149,0.000315,0.024575,1,0.000003,0.000001,-0.000001,,0.999955,0.008705,-0.001603,-0.003484,0.998203,-0.18023,-0.400834,0.999971,-0.006996,0.003146,0.00694,0.999824,0.017421,-0.003267,-0.017399,0.999843,,,,,,,30.3,,,
40401,1109964,0.053451,0.235021,9.81133,0.023012,0.063946,0.026337,,,,-0.000456,0.000153,0.002819,,,,,,,0.000134,0.000588,0.024528,1,-0.000001,0,0.000004,,0.999955,0.008704,-0.001604,-0.00348,0.998072,-0.180276,-0.400345,0.999971,-0.006987,0.003146,0.006931,0.999824,0.017419,-0.003268,-0.017396,0.999844,,,,,,,30.3,,,
40402,1109989,-0.006831,0.122365,9.76398,-0.038027,-0.047514,-0.023159,,,,0.001348,-0.002451,-0.000724,,,,,,,-0.000017,0.000306,0.02441,1,0.000002,-0.000003,-0.000001,,0.999955,0.008705,-0.001607,-0.003481,0.998215,-0.180686,-0.400522,0.999971,-0.00699,0.003154,0.006934,0.999824,0.017421,-0.003275,-0.017399,0.999844,,,,,,,30.3,,,
40403,1110014,0.030372,0.217764,9.794307,-0.000065,0.047136,0.008944,,,,-0.000304,0.003003,-0.001337,,,,-0.218219,-0.277141,0.380347,0.000076,0.000544,0.024486,1,0,0.000004,-0.000002,100256,0.999955,0.008705,-0.001604,-0.003484,0.998122,-0.180313,-0.400774,0.999971,-0.006995,0.003147,0.006939,0.999824,0.01742,-0.003268,-0.017397,0.999844,,,,,,,30.3,,,
40404,1110039,-0.00591,0.142775,9.797859,-0.036921,-0.027714,0.011074,,,,0.001366,0.000864,-0.000329,,,,,,,-0.000015,0.000357,0.024495,1,0.000002,0.000001,0,,0.999955,0.008706,-0.001603,-0.003485,0.998267,-0.180249,-0.400886,0.999971,-0.006997,0.003146,0.006941,0.999824,0.017422,-0.003267,-0.0174,0.999844,,,,,,,30.3,,,
40405,1110064,0.022177,0.172279,9.814095,-0.008675,0.001355,0.027908,,,,-0.000097,0.00082,0.001905,,,,,,,0.000055,0.000431,0.024535,1,0,0.000001,0.000002,,0.999955,0.008705,-0.001603,-0.003482,0.998188,-0.180197,-0.400544,0.999971,-0.006991,0.003145,0.006935,0.999824,0.017421,-0.003266,-0.017398,0.999843,,,,,,,30.3,,,
40406,1110089,0.000925,0.207919,9.799526,-0.029558,0.037218,0.013896,,,,0.003644,0.002102,-0.001206,,,,,,,0.000002,0.00052,0.024499,1,0.000005,0.000003,-0.000002,,0.999955,0.008709,-0.001601,-0.003484,0.99866,-0.179953,-0.400779,0.999971,-0.006995,0.003141,0.006939,0.999824,0.017429,-0.003262,-0.017407,0.999843,,,,,,,30.3,,,
40407,1110114,0.001395,0.097592,9.779358,-0.029828,-0.072705,-0.008192,,,,0.001258,0.000446,-0.001603,,,,-0.218239,-0.276159,0.377373,0.000004,0.000244,0.024448,1,0.000002,0.000001,-0.000002,100250,0.999955,0.00871,-0.001601,-0.003486,0.99879,-0.179946,-0.401075,0.999971,-0.007,0.003141,0.006944,0.999824,0.017431,-0.003262,-0.017409,0.999843,,,,,,,30.29,,,
40408,1110139,0.094479,0.184004,9.822416,0.063799,0.012297,0.036659,,,,0.000686,0.002239,0.002403,,,,,,,0.000236,0.00046,0.024556,1,0.000001,0.000003,0.000003,,0.999955,0.008711,-0.001599,-0.003484,0.998837,-0.179692,-0.400792,0.999971,-0.006995,0.003136,0.006939,0.999824,0.017432,-0.003258,-0.01741,0.999843,,,,,,,30.29,,,
40409,1110164,-0.039743,0.114837,9.794974,-0.070924,-0.055397,0.007594,,,,-0.00038,-0.001025,0.000382,,,,,,,-0.000099,0.000287,0.024487,1,0,-0.000001,0,,0.999955,0.00871,-0.0016,-0.003484,0.998732,-0.179901,-0.400808,0.999971,-0.006995,0.00314,0.00694,0.999824,0.01743,-0.003261,-0.017408,0.999843,,,,,,,30.29,,,
40410,1110189,0.115983,0.146628,9.784818,0.085067,-0.024455,-0.001516,,,,0.000995,0.0013,0.001165,,,,,,,0.00029,0.000367,0.024462,1,0.000001,0.000002,0.000001,,0.999955,0.008705,-0.001602,-0.003479,0.998137,-0.180142,-0.400271,0.999971,-0.006986,0.003144,0.00693,0.999824,0.01742,-0.003265,-0.017398,0.999844,,,,,,,30.29,,,
40411,1110214,-0.002035,0.194773,9.799528,-0.032734,0.024218,0.01366,,,,0.001333,-0.000586,0.002357,,,,-0.219659,-0.277629,0.379346,-0.000005,0.000487,0.024499,1,0.000002,-0.000001,0.000003,100258,0.999955,0.008706,-0.001604,-0.003477,0.998276,-0.180292,-0.400003,0.999971,-0.006981,0.003147,0.006925,0.999824,0.017422,-0.003268,-0.0174,0.999843,,,,,,,30.3,,,
40412,1110239,0.012688,0.09389,9.787035,-0.018624,-0.076493,-0.000543,,,,0.000034,0.000829,0.000565,,,,,,,0.000032,0.000235,0.024468,1,0,0.000001,0.000001,,0.999955,0.008706,-0.001603,-0.003477,0.998229,-0.180234,-0.399988,0.999971,-0.006981,0.003146,0.006925,0.999824,0.017421,-0.003267,-0.017399,0.999843,,,,,,,30.3,,,
40413,1110264,0.066557,0.187939,9.829233,0.035697,0.016359,0.043457,,,,0.001673,-0.00059,-0.000069,,,,,,,0.000166,0.00047,0.024573,1,0.000002,-0.000001,0,,0.999955,0.008707,-0.001604,-0.003476,0.998406,-0.18038,-0.399965,0.999971,-0.006981,0.003148,0.006925,0.999824,0.017424,-0.003269,-0.017402,0.999843,,,,,,,30.3,,,
40414,1110289,0.018901,0.130756,9.796357,-0.012326,-0.039826,0.009439,,,,-0.000666,-0.00169,0.001513,,,,,,,0.000047,0.000327,0.024491,1,-0.000001,-0.000002,0.000002,,0.999955,0.008706,-0.001607,-0.003475,0.998258,-0.180686,-0.399821,0.999971,-0.006978,0.003154,0.006922,0.999824,0.017422,-0.003275,-0.0174,0.999843,,,,,,,30.3,,,
40415,1110314,0.055573,0.205951,9.807994,0.024817,0.034975,0.022497,,,,-0.00173,-0.000894,-0.000149,,,,-0.218248,-0.274671,0.380336,0.000139,0.000515,0.02452,1,-0.000002,-0.000001,0,100248,0.999955,0.008703,-0.001609,-0.003476,0.997959,-0.180874,-0.399913,0.999971,-0.00698,0.003157,0.006924,0.999824,0.017417,-0.003278,-0.017394,0.999843,,,,,,,30.3,,,
40416,1110339,0.018237,0.097066,9.78806,-0.013144,-0.073377,0.000554,,,,0.00122,0.001078,0.0002,,,,,,,0.000046,0.000243,0.02447,1,0.000002,0.000001,0,,0.999955,0.008704,-0.001608,-0.003476,0.998082,-0.18078,-0.399949,0.999971,-0.00698,0.003155,0.006924,0.999824,0.017419,-0.003276,-0.017396,0.999843,,,,,,,30.3,,,
40417,1110364,0.018738,0.220598,9.81734,-0.01182,0.049729,0.031981,,,,-0.001402,0.002082,0.002608,,,,,,,0.000047,0.000552,0.024543,1,-0.000002,0.000003,0.000003,,0.999955,0.008702,-0.001606,-0.003472,0.997818,-0.18055,-0.399502,0.999971,-0.006973,0.003151,0.006917,0.999825,0.017414,-0.003272,-0.017392,0.999844,,,,,,,30.3,,,
40418,1110389,0.070275,0.209011,9.815454,0.039556,0.037766,0.030059,,,,0.000568,-0.000449,0.003124,,,,,,,0.000176,0.000522,0.024539,1,0.000001,-0.000001,0.000004,,0.999955,0.008702,-0.001607,-0.003469,0.997846,-0.180682,-0.399123,0.999971,-0.006966,0.003153,0.00691,0.999825,0.017415,-0.003274,-0.017392,0.999843,,,,,,,30.3,,,
40419,1110414,0.009714,0.168876,9.785748,-0.021058,-0.001411,-0.000534,,,,0.000177,0.002559,0.003368,,,,-0.218673,-0.279609,0.379859,0.000024,0.000422,0.024464,1,0,0.000003,0.000004,100253,0.999955,0.008702,-0.001604,-0.003465,0.997819,-0.180383,-0.398703,0.999971,-0.006959,0.003148,0.006903,0.999825,0.017414,-0.003269,-0.017392,0.999843,,,,,,,30.3,,,
40420,1110439,-0.018897,0.161112,9.777832,-0.049644,-0.008849,-0.008673,,,,0.0005,0.002602,0.003887,,,,,,,-0.000047,0.000403,0.024445,1,0.000001,0.000003,0.000005,,0.999955,0.008702,-0.001602,-0.003461,0.997837,-0.18008,-0.398208,0.999971,-0.00695,0.003143,0.006894,0.999825,0.017415,-0.003263,-0.017392,0.999843,,,,,,,30.3,,,
40421,1110464,0.060642,0.19958,9.803057,0.029932,0.028693,0.017468,,,,-0.000978,-0.001436,0.001878,,,,,,,0.000152,0.000499,0.024508,1,-0.000001,-0.000002,0.000002,,0.999955,0.0087,-0.001604,-0.003458,0.997635,-0.180353,-0.397882,0.999971,-0.006944,0.003148,0.006888,0.999825,0.017411,-0.003268,-0.017389,0.999844,,,,,,,30.3,,,
40422,1110489,-0.015877,0.164341,9.814094,-0.046843,-0.006357,0.02765,,,,0.002872,-0.000073,0.000662,,,,,,,-0.00004,0.000411,0.024535,1,0.000004,0,0.000001,,0.999955,0.008704,-0.001605,-0.003458,0.997994,-0.180425,-0.397855,0.999971,-0.006944,0.003149,0.006888,0.999825,0.017417,-0.003269,-0.017395,0.999844,,,,,,,30.3,,,
40423,1110514,0.01054,0.163125,9.768703,-0.020345,-0.006598,-0.017672,,,,-0.005916,-0.001079,-0.000794,,,,-0.216795,-0.276166,0.377882,0.000026,0.000408,0.024422,1,-0.000007,-0.000001,-0.000001,100252,0.999955,0.008696,-0.001607,-0.00346,0.997096,-0.180638,-0.398039,0.999971,-0.006947,0.003153,0.006891,0.999825,0.017402,-0.003273,-0.017379,0.999844,,,,,,,30.3,,,
40424,1110539,-0.010753,0.125432,9.791183,-0.042002,-0.044663,0.004083,,,,0.00002,-0.00096,-0.001273,,,,,,,-0.000027,0.000314,0.024478,1,0,-0.000001,-0.000002,,0.999955,0.008695,-0.001608,-0.003462,0.997048,-0.180832,-0.398292,0.999971,-0.006951,0.003156,0.006895,0.999825,0.017401,-0.003277,-0.017379,0.999844,,,,,,,30.3,,,
40425,1110564,0.055766,0.126383,9.81276,0.024511,-0.044534,0.025882,,,,-0.000085,0.00098,0.000875,,,,,,,0.000139,0.000316,0.024532,1,0,0.000001,0.000001,,0.999955,0.008695,-0.001608,-0.00346,0.996973,-0.180756,-0.398114,0.999971,-0.006948,0.003155,0.006892,0.999825,0.017399,-0.003275,-0.017377,0.999844,,,,,,,30.3,,,
40426,1110589,0.044745,0.193776,9.792521,0.014048,0.023398,0.006782,,,,-0.002381,0.001282,0.002483,,,,,,,0.000112,0.000485,0.024481,1,-0.000003,0.000002,0.000003,,0.999955,0.008691,-0.001606,-0.003458,0.996579,-0.180638,-0.397823,0.999971,-0.006943,0.003153,0.006887,0.999825,0.017393,-0.003273,-0.01737,0.999844,,,,,,,30.3,,,
40427,1110614,0.010244,0.113715,9.798598,-0.021095,-0.056542,0.011357,,,,-0.000444,-0.000614,0.002038,,,,-0.221106,-0.277127,0.37933,0.000026,0.000284,0.024496,1,-0.000001,-0.000001,0.000003,100251,0.999955,0.00869,-0.001608,-0.003456,0.996463,-0.180791,-0.397601,0.999971,-0.006939,0.003155,0.006883,0.999825,0.017391,-0.003276,-0.017368,0.999844,,,,,,,30.3,,,
40428,1110639,0.06665,0.121843,9.775829,0.035469,-0.048532,-0.011089,,,,0.002428,0.000501,0.000414,,,,,,,0.000167,0.000304,0.02444,1,0.000003,0.000001,0.000001,,0.999955,0.008693,-0.001608,-0.003456,0.996759,-0.18078,-0.397609,0.999971,-0.006939,0.003155,0.006884,0.999825,0.017396,-0.003275,-0.017374,0.999844,,,,,,,30.3,,,
40429,1110664,0.028089,0.185769,9.767532,-0.002653,0.015879,-0.018392,,,,-0.000302,-0.000216,-0.003494,,,,,,,0.00007,0.000464,0.024419,1,0,0,-0.000004,,0.999955,0.008692,-0.001608,-0.00346,0.996654,-0.180865,-0.398051,0.999971,-0.006947,0.003157,0.006891,0.999825,0.017394,-0.003277,-0.017372,0.999844,,,,,,,30.3,,,
40430,1110689,0.04348,0.193037,9.853506,0.012467,0.021569,0.067743,,,,-0.000454,-0.000678,-0.001697,,,,,,,0.000109,0.000483,0.024634,1,-0.000001,-0.000001,-0.000002,,0.999955,0.008691,-0.00161,-0.003462,0.996539,-0.181017,-0.398363,0.999971,-0.006953,0.003159,0.006897,0.999825,0.017392,-0.00328,-0.01737,0.999844,,,,,,,30.3,,,
40431,1110714,0.047557,0.144671,9.801651,0.01664,-0.025869,0.015068,,,,-0.001034,0.005195,0.002959,,,,-0.217767,-0.274673,0.38034,0.000119,0.000362,0.024504,1,-0.000001,0.000006,0.000004,100252,0.999955,0.008689,-0.001604,-0.003459,0.996338,-0.180341,-0.397995,0.999971,-0.006946,0.003148,0.00689,0.999825,0.017388,-0.003268,-0.017366,0.999844,,,,,,,30.3,,,
40432,1110739,-0.035171,0.201808,9.766124,-0.065754,0.03232,-0.01972,,,,0.002385,-0.000763,0.002698,,,,,,,-0.000088,0.000504,0.024415,1,0.000003,-0.000001,0.000003,,0.999955,0.008691,-0.001605,-0.003455,0.996615,-0.180518,-0.397555,0.999971,-0.006939,0.003151,0.006883,0.999825,0.017393,-0.003271,-0.017371,0.999844,,,,,,,30.3,,,
40433,1110764,0.082519,0.148413,9.817864,0.051592,-0.022663,0.031451,,,,-0.001056,0.003851,0.003631,,,,,,,0.000207,0.000371,0.024545,1,-0.000001,0.000005,0.000005,,0.999955,0.00869,-0.001601,-0.003451,0.996411,-0.180035,-0.397094,0.999971,-0.006931,0.003142,0.006875,0.999825,0.01739,-0.003262,-0.017368,0.999844,,,,,,,30.3,,,
40434,1110789,0.0207,0.251028,9.826922,-0.009568,0.080147,0.042098,,,,0.000837,0.001732,0.001011,,,,,,,0.000052,0.000628,0.024567,1,0.000001,0.000002,0.000001,,0.999955,0.00869,-0.0016,-0.003451,0.996479,-0.17985,-0.397013,0.999971,-0.006929,0.003139,0.006873,0.999825,0.017391,-0.003259,-0.017369,0.999844,,,,,,,30.3,,,
40435,1110814,0.02515,0.131061,9.778164,-0.005974,-0.0391,-0.008723,,,,0.003012,-0.002794,-0.000644,,,,-0.220583,-0.280586,0.38034,0.000063,0.000327,0.024445,1,0.000004,-0.000003,-0.000001,100251,0.999955,0.008694,-0.001604,-0.003452,0.996859,-0.180308,-0.39718,0.999971,-0.006932,0.003147,0.006876,0.999825,0.017398,-0.003267,-0.017375,0.999844,,,,,,,30.29,,,
40436,1110839,0.062252,0.200856,9.812377,0.031599,0.029746,0.026815,,,,0.003388,0.000911,-0.001648,,,,,,,0.000156,0.000502,0.024531,1,0.000004,0.000001,-0.000002,,0.999955,0.008697,-0.001603,-0.003455,0.997294,-0.180234,-0.397482,0.999971,-0.006937,0.003146,0.006882,0.999825,0.017405,-0.003266,-0.017383,0.999844,,,,,,,30.29,,,
40437,1110864,0.02071,0.16201,9.789419,-0.010198,-0.008368,0.003053,,,,0.001182,-0.000605,0.001336,,,,,,,0.000052,0.000405,0.024474,1,0.000001,-0.000001,0.000002,,0.999955,0.008698,-0.001604,-0.003453,0.9974,-0.180386,-0.397238,0.999971,-0.006933,0.003148,0.006877,0.999825,0.017407,-0.003268,-0.017385,0.999844,,,,,,,30.29,,,
40438,1110889,0.010127,0.204712,9.803009,-0.020562,0.034189,0.01735,,,,0.000235,-0.0007,0.001033,,,,,,,0.000025,0.000512,0.024508,1,0,-0.000001,0.000001,,0.999955,0.008698,-0.001606,-0.003452,0.997382,-0.180549,-0.39716,0.999971,-0.006932,0.003151,0.006876,0.999825,0.017407,-0.003271,-0.017384,0.999844,,,,,,,30.29,,,
40439,1110914,0.029581,0.102489,9.779549,-0.001762,-0.067762,-0.007824,,,,0.000685,-0.000715,0.000081,,,,-0.218218,-0.277637,0.378865,0.000074,0.000256,0.024449,1,0.000001,-0.000001,0,100248,0.999955,0.008699,-0.001607,-0.003453,0.997428,-0.180711,-0.397218,0.999971,-0.006933,0.003154,0.006877,0.999825,0.017407,-0.003274,-0.017385,0.999844,,,,,,,30.3,,,
40440,1110939,-0.010546,0.245211,9.793591,-0.04093,0.075,0.008574,,,,-0.000095,0.000285,-0.000818,,,,,,,-0.000026,0.000613,0.024484,1,0,0,-0.000001,,0.999955,0.008698,-0.001607,-0.003454,0.997364,-0.180728,-0.397403,0.999971,-0.006936,0.003154,0.00688,0.999825,0.017406,-0.003274,-0.017384,0.999844,,,,,,,30.3,,,
40441,1110964,0.01365,0.066127,9.775639,-0.01776,-0.103834,-0.012416,,,,-0.00138,0.003391,0.001153,,,,,,,0.000034,0.000165,0.024439,1,-0.000002,0.000004,0.000001,,0.999955,0.008696,-0.001604,-0.003452,0.997103,-0.180307,-0.397176,0.999971,-0.006932,0.003147,0.006876,0.999825,0.017402,-0.003267,-0.01738,0.999844,,,,,,,30.3,,,
40442,1110989,-0.000656,0.189844,9.804962,-0.031285,0.019348,0.019012,,,,0.001591,0.002443,0.000492,,,,,,,-0.000001,0.000475,0.024512,1,0.000002,0.000003,0.000001,,0.999955,0.008697,-0.001601,-0.003452,0.997279,-0.180018,-0.397167,0.999971,-0.006932,0.003142,0.006876,0.999825,0.017405,-0.003262,-0.017383,0.999844,,,,,,,30.3,,,
40443,1111014,0.046583,0.080167,9.789443,0.01533,-0.090342,0.001734,,,,0.000418,0.00309,-0.001325,,,,-0.217259,-0.277147,0.379862,0.000117,0.0002,0.024474,1,0.000001,0.000004,-0.000002,100254,0.999955,0.008697,-0.001598,-0.003454,0.997288,-0.179632,-0.397417,0.999971,-0.006936,0.003135,0.006881,0.999825,0.017405,-0.003255,-0.017383,0.999844,,,,,,,30.3,,,
40444,1111039,0.039438,0.152052,9.793878,0.008715,-0.01855,0.007396,,,,0.001492,0.002774,0.000783,,,,,,,0.000099,0.00038,0.024485,1,0.000002,0.000003,0.000001,,0.999955,0.008699,-0.001595,-0.003454,0.99745,-0.179296,-0.397366,0.999971,-0.006935,0.003129,0.00688,0.999825,0.017408,-0.003249,-0.017386,0.999844,,,,,,,30.3,,,
40445,1111064,-0.038719,0.122824,9.79507,-0.069771,-0.047233,0.007834,,,,0.000615,-0.000986,-0.001003,,,,,,,-0.000097,0.000307,0.024488,1,0.000001,-0.000001,-0.000001,,0.999955,0.008699,-0.001597,-0.003455,0.997475,-0.179497,-0.397469,0.999971,-0.006937,0.003133,0.006881,0.999825,0.017408,-0.003253,-0.017386,0.999844,,,,,,,30.3,,,
40446,1111089,0.129627,0.169409,9.813357,0.098944,-0.00205,0.027456,,,,-0.001484,0.001901,-0.004663,,,,,,,0.000324,0.000424,0.024533,1,-0.000002,0.000002,-0.000006,,0.999955,0.008697,-0.001595,-0.003461,0.997213,-0.179273,-0.3982,0.999971,-0.00695,0.003129,0.006894,0.999825,0.017404,-0.003249,-0.017382,0.999844,,,,,,,30.3,,,
40447,1111114,0.008335,0.157883,9.794927,-0.022453,-0.012489,0.00845,,,,0.00108,-0.000581,0.000358,,,,-0.216793,-0.275666,0.380849,0.000021,0.000395,0.024487,1,0.000001,-0.000001,0,100252,0.999955,0.008698,-0.001596,-0.003461,0.997316,-0.179417,-0.398218,0.999971,-0.00695,0.003131,0.006895,0.999825,0.017405,-0.003252,-0.017383,0.999844,,,,,,,30.3,,,
40448,1111139,-0.001275,0.154046,9.811209,-0.032212,-0.016656,0.024632,,,,0.003057,-0.001475,0.00077,,,,,,,-0.000003,0.000385,0.024528,1,0.000004,-0.000002,0.000001,,0.999955,0.008701,-0.001598,-0.003461,0.997702,-0.17969,-0.39818,0.999971,-0.006949,0.003136,0.006894,0.999825,0.017412,-0.003257,-0.01739,0.999844,,,,,,,30.3,,,
40449,1111164,0.063126,0.201999,9.791207,0.032719,0.031205,0.005671,,,,0.001409,0.002269,0.00043,,,,,,,0.000158,0.000505,0.024478,1,0.000002,0.000003,0.000001,,0.999955,0.008702,-0.001596,-0.00346,0.997841,-0.179428,-0.398071,0.999971,-0.006948,0.003132,0.006892,0.999825,0.017415,-0.003252,-0.017393,0.999844,,,,,,,30.3,,,
40450,1111189,-0.033161,0.100668,9.786556,-0.06432,-0.069473,-0.001047,,,,0.003246,-0.000139,-0.002599,,,,,,,-0.000083,0.000251,0.024466,1,0.000004,0,-0.000003,,0.999955,0.008706,-0.001597,-0.003464,0.998256,-0.179501,-0.398511,0.999971,-0.006955,0.003133,0.0069,0.999825,0.017422,-0.003254,-0.0174,0.999843,,,,,,,30.3,,,
40451,1111214,0.063586,0.235546,9.794734,0.033322,0.064581,0.009784,,,,0.001516,0.000104,0.003307,,,,-0.22062,-0.277125,0.381314,0.000159,0.000589,0.024487,1,0.000002,0,0.000004,100258,0.999955,0.008707,-0.001597,-0.00346,0.99842,-0.179554,-0.398105,0.999971,-0.006948,0.003134,0.006893,0.999825,0.017425,-0.003254,-0.017403,0.999843,,,,,,,30.3,,,
40452,1111239,-0.011892,0.142627,9.817265,-0.042889,-0.028297,0.030455,,,,0.003106,-0.000231,-0.000452,,,,,,,-0.00003,0.000356,0.024543,1,0.000004,0,-0.000001,,0.999955,0.008711,-0.001598,-0.003461,0.998814,-0.179646,-0.398239,0.999971,-0.00695,0.003135,0.006895,0.999824,0.017432,-0.003256,-0.01741,0.999843,,,,,,,30.3,,,
40453,1111264,0.037813,0.162092,9.800529,0.007047,-0.008737,0.014217,,,,-0.001316,0.001017,0.001254,,,,,,,0.000095,0.000405,0.024501,1,-0.000002,0.000001,0.000002,,0.999955,0.008708,-0.001597,-0.003459,0.998563,-0.179565,-0.398008,0.999971,-0.006946,0.003134,0.006891,0.999824,0.017427,-0.003255,-0.017405,0.999843,,,,,,,30.3,,,
40454,1111289,-0.013074,0.205199,9.787677,-0.043566,0.034788,0.001958,,,,0.002619,-0.000633,0.000063,,,,,,,-0.000033,0.000513,0.024469,1,0.000003,-0.000001,0,,0.999955,0.008711,-0.001599,-0.00346,0.998886,-0.179716,-0.398069,0.999971,-0.006948,0.003137,0.006892,0.999824,0.017433,-0.003257,-0.017411,0.999843,,,,,,,30.3,,,
40455,1111314,0.010815,0.112773,9.809351,-0.020171,-0.058095,0.022092,,,,0.000022,0.004252,0.000287,,,,-0.219673,-0.276145,0.380329,0.000027,0.000282,0.024523,1,0,0.000005,0,100254,0.999955,0.008711,-0.001594,-0.00346,0.998838,-0.179168,-0.398086,0.999971,-0.006948,0.003127,0.006892,0.999824,0.017432,-0.003248,-0.01741,0.999843,,,,,,,30.3,,,
40456,1111339,0.040361,0.267039,9.815862,0.010309,0.095958,0.031383,,,,-0.002484,0.000181,0.001944,,,,,,,0.000101,0.000668,0.02454,1,-0.000003,0,0.000002,,0.999955,0.008707,-0.001594,-0.003458,0.99843,-0.179207,-0.397875,0.999971,-0.006944,0.003128,0.006889,0.999825,0.017425,-0.003248,-0.017403,0.999843,,,,,,,30.3,,,
40457,1111364,-0.022274,0.075647,9.797192,-0.053584,-0.094685,0.009186,,,,-0.000121,0.000233,-0.001322,,,,,,,-0.000056,0.000189,0.024493,1,0,0,-0.000002,,0.999955,0.008707,-0.001594,-0.00346,0.99835,-0.179232,-0.398015,0.999971,-0.006947,0.003128,0.006891,0.999825,0.017424,-0.003249,-0.017401,0.999843,,,,,,,30.3,,,
40458,1111389,0.046696,0.205813,9.808564,0.016248,0.034767,0.02304,,,,0.000388,0.000379,-0.00172,,,,,,,0.000117,0.000515,0.024521,1,0,0,-0.000002,,0.999955,0.008707,-0.001594,-0.003462,0.998355,-0.179233,-0.398328,0.999971,-0.006952,0.003128,0.006897,0.999825,0.017424,-0.003249,-0.017402,0.999843,,,,,,,30.3,,,
40459,1111414,0.026113,0.090716,9.78248,-0.005172,-0.079832,-0.005109,,,,0.002827,-0.002222,-0.004126,,,,-0.216798,-0.274673,0.383319,0.000065,0.000227,0.024456,1,0.000004,-0.000003,-0.000005,100252,0.999955,0.00871,-0.001598,-0.003468,0.998711,-0.179601,-0.398993,0.999971,-0.006964,0.003135,0.006908,0.999824,0.01743,-0.003255,-0.017408,0.999843,,,,,,,30.3,,,
40460,1111439,0.01368,0.170503,9.808109,-0.017131,-0.000503,0.021867,,,,0.003309,-0.00073,0.00141,,,,,,,0.000034,0.000426,0.02452,1,0.000004,-0.000001,0.000002,,0.999955,0.008713,-0.001599,-0.003467,0.999133,-0.179769,-0.398861,0.999971,-0.006961,0.003138,0.006906,0.999824,0.017437,-0.003258,-0.017415,0.999843,,,,,,,30.3,,,
40461,1111464,0.044001,0.08026,9.790158,0.012703,-0.090553,0.002438,,,,0.000336,0.001433,0.002327,,,,,,,0.00011,0.000201,0.024475,1,0,0.000002,0.000003,,0.999955,0.008713,-0.001598,-0.003463,0.999118,-0.17963,-0.398469,0.999971,-0.006954,0.003135,0.006899,0.999824,0.017437,-0.003256,-0.017415,0.999843,,,,,,,30.3,,,
40462,1111489,0.046918,0.194919,9.83243,0.016233,0.023323,0.046711,,,,0.000464,0.000086,-0.000635,,,,,,,0.000117,0.000487,0.024581,1,0.000001,0,-0.000001,,0.999955,0.008713,-0.001598,-0.003465,0.999133,-0.179676,-0.398627,0.999971,-0.006957,0.003136,0.006902,0.999824,0.017437,-0.003257,-0.017415,0.999843,,,,,,,30.3,,,
40463,1111514,0.048628,0.108289,9.781335,0.017612,-0.062583,-0.005882,,,,0.003888,0.002354,0.000661,,,,-0.220628,-0.276633,0.380322,0.000122,0.00027,0.024453,1,0.000005,0.000003,0.000001,100252,0.999955,0.008718,-0.001596,-0.003465,0.999638,-0.179401,-0.398595,0.999971,-0.006957,0.003131,0.006901,0.999824,0.017446,-0.003252,-0.017424,0.999843,,,,,,,30.3,,,
40464,1111539,0.00799,0.154819,9.769607,-0.022739,-0.015546,-0.016925,,,,0.001527,-0.00017,-0.002734,,,,,,,0.00002,0.000387,0.024424,1,0.000002,0,-0.000003,,0.999955,0.008719,-0.001597,-0.003469,0.999807,-0.179478,-0.399055,0.999971,-0.006965,0.003132,0.006909,0.999824,0.017449,-0.003253,-0.017427,0.999843,,,,,,,30.3,,,
40465,1111564,0.012597,0.190124,9.810422,-0.017856,0.018944,0.02452,,,,0.002316,0.003513,-0.000584,,,,,,,0.000032,0.000475,0.024526,1,0.000003,0.000004,-0.000001,,0.999955,0.008722,-0.001593,-0.003469,1.000075,-0.179036,-0.399085,0.999971,-0.006965,0.003125,0.00691,0.999824,0.017454,-0.003246,-0.017432,0.999843,,,,,,,30.3,,,
40466,1111589,0.060253,0.218559,9.821962,0.030042,0.046809,0.036704,,,,0.001971,0.003689,-0.00021,,,,,,,0.000151,0.000546,0.024555,1,0.000002,0.000005,0,,0.999955,0.008724,-0.001589,-0.00347,1.000306,-0.178567,-0.399174,0.999971,-0.006967,0.003117,0.006911,0.999824,0.017458,-0.003238,-0.017436,0.999843,,,,,,,30.3,,,
40467,1111614,-0.010985,0.180429,9.787013,-0.041313,0.009956,0.000872,,,,-0.002213,0.002681,-0.000668,,,,-0.22013,-0.278117,0.380828,-0.000027,0.000451,0.024468,1,-0.000003,0.000003,-0.000001,100246,0.999955,0.008721,-0.001586,-0.003471,0.999938,-0.178241,-0.399331,0.999971,-0.00697,0.003111,0.006914,0.999824,0.017451,-0.003232,-0.017429,0.999843,,,,,,,30.3,,,
40468,1111639,0.000462,0.162817,9.788084,-0.030181,-0.007845,0.00167,,,,0.001014,-0.002249,0.003067,,,,,,,0.000001,0.000407,0.02447,1,0.000001,-0.000003,0.000004,,0.999955,0.008721,-0.001589,-0.003468,1.00003,-0.178631,-0.398965,0.999971,-0.006963,0.003118,0.006908,0.999824,0.017453,-0.003239,-0.017431,0.999843,,,,,,,30.3,,,
40469,1111664,0.072218,0.195772,9.83088,0.041754,0.023881,0.045256,,,,0.000267,0.000916,0.000017,,,,,,,0.000181,0.000489,0.024577,1,0,0.000001,0,,0.999955,0.008721,-0.001589,-0.003467,1.000006,-0.178561,-0.398915,0.999971,-0.006962,0.003116,0.006907,0.999824,0.017452,-0.003237,-0.01743,0.999843,,,,,,,30.3,,,
40470,1111689,0.013317,0.192034,9.810543,-0.017022,0.020899,0.024673,,,,0.000484,0.00236,-0.001392,,,,,,,0.000033,0.00048,0.024526,1,0.000001,0.000003,-0.000002,,0.999955,0.008721,-0.001586,-0.00347,1.000025,-0.17828,-0.399177,0.999971,-0.006967,0.003112,0.006912,0.999824,0.017453,-0.003233,-0.017431,0.999843,,,,,,,30.3,,,
40471,1111714,0.025713,0.18458,9.798811,-0.004733,0.013402,0.012852,,,,0.003756,-0.000481,-0.000043,,,,-0.218697,-0.278132,0.377377,0.000064,0.000461,0.024497,1,0.000005,-0.000001,0,100252,0.999955,0.008726,-0.001587,-0.00347,1.000511,-0.178408,-0.399253,0.999971,-0.006968,0.003114,0.006913,0.999824,0.017461,-0.003235,-0.017439,0.999843,,,,,,,30.3,,,
40472,1111739,0.023936,0.159074,9.796883,-0.006818,-0.011858,0.010472,,,,-0.001907,-0.002809,0.004413,,,,,,,0.00006,0.000398,0.024492,1,-0.000002,-0.000004,0.000006,,0.999955,0.008723,-0.001591,-0.003466,1.000185,-0.178881,-0.398696,0.999971,-0.006958,0.003122,0.006903,0.999824,0.017456,-0.003243,-0.017433,0.999843,,,,,,,30.3,,,
40473,1111764,0.03952,0.170237,9.793973,0.008931,-0.000756,0.007808,,,,-0.000715,0.000442,0.002841,,,,,,,0.000099,0.000426,0.024485,1,-0.000001,0.000001,0.000004,,0.999955,0.008721,-0.001591,-0.003462,1.000018,-0.178887,-0.398247,0.999971,-0.006951,0.003122,0.006895,0.999824,0.017453,-0.003243,-0.017431,0.999843,,,,,,,30.3,,,
40474,1111789,-0.008908,0.159441,9.818433,-0.039688,-0.011908,0.031924,,,,0.005274,-0.000349,0.000144,,,,,,,-0.000022,0.000398,0.024546,1,0.000007,0,0,,0.999955,0.008727,-0.001592,-0.003462,1.000722,-0.178997,-0.398296,0.999971,-0.006951,0.003124,0.006896,0.999824,0.017465,-0.003245,-0.017443,0.999843,,,,,,,30.3,,,
40475,1111814,0.075326,0.131156,9.812428,0.04454,-0.040297,0.025691,,,,-0.004771,0.003498,-0.00034,,,,-0.219162,-0.279114,0.378862,0.000189,0.000328,0.024531,1,-0.000006,0.000004,0,100247,0.999955,0.008721,-0.001588,-0.003463,0.999987,-0.178555,-0.398404,0.999971,-0.006953,0.003116,0.006898,0.999824,0.017452,-0.003237,-0.01743,0.999843,,,,,,,30.29,,,
40476,1111839,-0.020314,0.130146,9.773968,-0.050933,-0.040305,-0.013081,,,,0.00458,0.003014,0.004204,,,,,,,-0.000051,0.000325,0.024435,1,0.000006,0.000004,0.000005,,0.999955,0.008726,-0.001585,-0.003458,1.00059,-0.178194,-0.397862,0.999971,-0.006944,0.00311,0.006889,0.999824,0.017463,-0.003231,-0.017441,0.999843,,,,,,,30.29,,,
40477,1111864,0.058848,0.14513,9.771156,0.028244,-0.025662,-0.015385,,,,-0.000779,-0.000273,-0.000472,,,,,,,0.000147,0.000363,0.024428,1,-0.000001,0,-0.000001,,0.999955,0.008725,-0.001586,-0.003458,1.000416,-0.178294,-0.397856,0.999971,-0.006944,0.003112,0.006888,0.999824,0.01746,-0.003232,-0.017438,0.999843,,,,,,,30.29,,,
40478,1111889,0.009711,0.18116,9.832311,-0.020764,0.009606,0.046235,,,,0.000391,0.001647,-0.000153,,,,,,,0.000024,0.000453,0.024581,1,0,0.000002,0,,0.999955,0.008725,-0.001585,-0.003459,1.000421,-0.178117,-0.397942,0.999971,-0.006945,0.003109,0.00689,0.999824,0.01746,-0.003229,-0.017438,0.999843,,,,,,,30.29,,,
40479,1111914,0.081457,0.149661,9.815907,0.050643,-0.022091,0.029508,,,,0.000214,-0.002491,0.000114,,,,-0.217734,-0.278137,0.377881,0.000203,0.000374,0.02454,1,0,-0.000003,0,100254,0.999955,0.008725,-0.001588,-0.003459,1.0004,-0.178534,-0.398,0.999971,-0.006946,0.003116,0.006891,0.999824,0.017459,-0.003237,-0.017437,0.999843,,,,,,,30.3,,,
40480,1111939,0.029506,0.163553,9.794758,-0.001119,-0.007548,0.008445,,,,0.001868,-0.000535,0.001153,,,,,,,0.000074,0.000409,0.024487,1,0.000002,-0.000001,0.000001,,0.999955,0.008726,-0.001589,-0.003459,1.000616,-0.178674,-0.397905,0.999971,-0.006945,0.003118,0.006889,0.999824,0.017463,-0.003239,-0.017441,0.999843,,,,,,,30.3,,,
40481,1111964,-0.004544,0.124353,9.803699,-0.035437,-0.046878,0.016593,,,,0.005572,0.000604,0.001469,,,,,,,-0.000011,0.000311,0.024509,1,0.000007,0.000001,0.000002,,0.999955,0.008733,-0.001589,-0.003456,1.00135,-0.178653,-0.39764,0.999971,-0.00694,0.003118,0.006885,0.999824,0.017476,-0.003239,-0.017454,0.999843,,,,,,,30.3,,,
40482,1111989,0.088625,0.224452,9.842851,0.058592,0.052007,0.057776,,,,0.000223,0.006621,0.002017,,,,,,,0.000222,0.000561,0.024607,1,0,0.000008,0.000003,,0.999955,0.008733,-0.001582,-0.003454,1.001329,-0.177769,-0.397403,0.999971,-0.006936,0.003103,0.006881,0.999824,0.017476,-0.003223,-0.017454,0.999843,,,,,,,30.3,,,
40483,1112014,-0.048094,0.122151,9.795785,-0.078789,-0.048415,0.008508,,,,-0.001587,0.001214,0.003206,,,,-0.219162,-0.278617,0.38084,-0.00012,0.000305,0.024489,1,-0.000002,0.000002,0.000004,100254,0.999955,0.00873,-0.001581,-0.003451,1.001049,-0.177663,-0.397009,0.999971,-0.006929,0.003101,0.006874,0.999824,0.017471,-0.003221,-0.017449,0.999843,,,,,,,30.3,,,
40484,1112039,0.044634,0.189705,9.778881,0.014507,0.018711,-0.006927,,,,0.000792,0.001907,0.001252,,,,,,,0.000112,0.000474,0.024447,1,0.000001,0.000002,0.000002,,0.999955,0.008731,-0.001579,-0.00345,1.001111,-0.177453,-0.396893,0.999971,-0.006927,0.003097,0.006872,0.999824,0.017472,-0.003218,-0.01745,0.999843,,,,,,,30.3,,,
40485,1112064,-0.054625,0.19935,9.787415,-0.084904,0.028812,0.001468,,,,0.002284,-0.002712,0.003869,,,,,,,-0.000137,0.000498,0.024469,1,0.000003,-0.000003,0.000005,,0.999955,0.008733,-0.001583,-0.003445,1.001373,-0.177913,-0.396283,0.999971,-0.006916,0.003105,0.006861,0.999824,0.017476,-0.003225,-0.017454,0.999842,,,,,,,30.3,,,
40486,1112089,0.070136,0.155421,9.78985,0.03957,-0.0158,0.003522,,,,-0.003089,-0.000741,-0.002652,,,,,,,0.000175,0.000389,0.024475,1,-0.000004,-0.000001,-0.000003,,0.999955,0.008729,-0.001584,-0.003448,1.00088,-0.178072,-0.396733,0.999971,-0.006924,0.003108,0.006869,0.999824,0.017468,-0.003228,-0.017446,0.999843,,,,,,,30.3,,,
40487,1112114,0.010877,0.178971,9.799931,-0.019565,0.007599,0.013829,,,,0.006429,-0.000237,-0.00072,,,,-0.216788,-0.276659,0.378379,0.000027,0.000447,0.0245,1,0.000008,0,-0.000001,100256,0.999955,0.008736,-0.001585,-0.00345,1.00175,-0.178164,-0.396904,0.999971,-0.006927,0.00311,0.006872,0.999824,0.017483,-0.00323,-0.017461,0.999842,,,,,,,30.3,,,
40488,1112139,0.027483,0.104612,9.79104,-0.003384,-0.066481,0.003693,,,,-0.001203,0.001281,0.002439,,,,,,,0.000069,0.000262,0.024478,1,-0.000002,0.000002,0.000003,,0.999955,0.008734,-0.001584,-0.003447,1.001525,-0.178047,-0.39662,0.999971,-0.006922,0.003107,0.006867,0.999824,0.017479,-0.003228,-0.017457,0.999842,,,,,,,30.3,,,
40489,1112164,0.030677,0.236289,9.815669,0.000465,0.064671,0.030625,,,,0.000646,-0.002581,0.001008,,,,,,,0.000077,0.000591,0.024539,1,0.000001,-0.000003,0.000001,,0.999955,0.008735,-0.001588,-0.003446,1.001555,-0.178481,-0.39643,0.999971,-0.006919,0.003115,0.006863,0.999824,0.017479,-0.003235,-0.017458,0.999842,,,,,,,30.3,,,
40490,1112189,0.02368,0.066001,9.801483,-0.007659,-0.10528,0.013444,,,,0.000264,-0.001168,0.001267,,,,,,,0.000059,0.000165,0.024504,1,0,-0.000001,0.000002,,0.999955,0.008735,-0.00159,-0.003445,1.001541,-0.178712,-0.396319,0.999971,-0.006917,0.003119,0.006861,0.999824,0.017479,-0.003239,-0.017457,0.999842,,,,,,,30.3,,,
40491,1112214,0.052274,0.234639,9.788445,0.022177,0.063589,0.003444,,,,-0.004399,0.000482,0.000332,,,,-0.21772,-0.279123,0.378876,0.000131,0.000587,0.024471,1,-0.000005,0.000001,0,100256,0.999955,0.008729,-0.00159,-0.003445,1.000859,-0.178703,-0.396339,0.999971,-0.006917,0.003119,0.006862,0.999824,0.017467,-0.003239,-0.017445,0.999843,,,,,,,30.31,,,
40492,1112239,-0.016755,0.044797,9.791899,-0.048341,-0.125896,0.003366,,,,-0.000076,-0.003171,-0.000773,,,,,,,-0.000042,0.000112,0.02448,1,0,-0.000004,-0.000001,,0.999955,0.008728,-0.001594,-0.003447,1.000797,-0.179215,-0.396526,0.999971,-0.006921,0.003128,0.006865,0.999824,0.017466,-0.003248,-0.017444,0.999843,,,,,,,30.31,,,
40493,1112264,0.075691,0.250154,9.810712,0.045581,0.078598,0.026054,,,,-0.002709,0.001293,0.000761,,,,,,,0.000189,0.000626,0.024527,1,-0.000003,0.000002,0.000001,,0.999955,0.008724,-0.001593,-0.003445,1.000346,-0.179094,-0.396341,0.999971,-0.006917,0.003126,0.006862,0.999824,0.017458,-0.003246,-0.017436,0.999843,,,,,,,30.31,,,
40494,1112289,-0.017889,0.068628,9.782791,-0.049226,-0.101889,-0.005323,,,,0.001437,-0.000669,0.000957,,,,,,,-0.000045,0.000171,0.024457,1,0.000002,-0.000001,0.000001,,0.999955,0.008725,-0.001594,-0.003444,1.0005,-0.179252,-0.396273,0.999971,-0.006916,0.003129,0.006861,0.999824,0.017461,-0.003249,-0.017439,0.999843,,,,,,,30.31,,,
40495,1112314,0.073609,0.20846,9.816215,0.043059,0.036535,0.030825,,,,0.004298,-0.001343,-0.000453,,,,-0.216808,-0.274182,0.381832,0.000184,0.000521,0.024541,1,0.000005,-0.000002,-0.000001,100255,0.999955,0.00873,-0.001597,-0.003446,1.001064,-0.179503,-0.39641,0.999971,-0.006919,0.003133,0.006863,0.999824,0.017471,-0.003253,-0.017449,0.999843,,,,,,,30.3,,,
40496,1112339,0.031266,0.109892,9.798145,0.000056,-0.061398,0.0109,,,,0.002154,-0.001372,-0.000046,,,,,,,0.000078,0.000275,0.024495,1,0.000003,-0.000002,0,,0.999955,0.008733,-0.001599,-0.003446,1.001321,-0.179759,-0.396488,0.999971,-0.00692,0.003137,0.006864,0.999824,0.017475,-0.003258,-0.017453,0.999843,,,,,,,30.3,,,
40497,1112364,0.023184,0.171121,9.805465,-0.007673,-0.000108,0.019263,,,,-0.001615,-0.001346,0.001986,,,,,,,0.000058,0.000428,0.024514,1,-0.000002,-0.000002,0.000002,,0.999955,0.00873,-0.001601,-0.003443,1.001026,-0.180018,-0.396163,0.999971,-0.006914,0.003142,0.006858,0.999824,0.01747,-0.003262,-0.017448,0.999842,,,,,,,30.3,,,
40498,1112389,0.071483,0.138638,9.805322,0.040367,-0.032943,0.018703,,,,-0.000095,-0.001177,-0.000085,,,,,,,0.000179,0.000347,0.024513,1,0,-0.000001,0,,0.999955,0.008729,-0.001603,-0.003444,1.000961,-0.180246,-0.396246,0.999971,-0.006916,0.003146,0.00686,0.999824,0.017469,-0.003266,-0.017447,0.999842,,,,,,,30.3,,,
40499,1112414,-0.031297,0.168986,9.825371,-0.062073,-0.002367,0.038959,,,,0.002704,0.003614,0.001331,,,,-0.216273,-0.279127,0.38087,-0.000078,0.000422,0.024563,1,0.000003,0.000005,0.000002,100258,0.999955,0.008732,-0.001599,-0.003443,1.001296,-0.179792,-0.396115,0.999971,-0.006913,0.003138,0.006858,0.999824,0.017475,-0.003258,-0.017453,0.999842,,,,,,,30.3,,,
40500,1112439,0.073602,0.193353,9.79147,0.042903,0.021995,0.005816,,,,-0.001144,-0.002049,0.000136,,,,,,,0.000184,0.000483,0.024479,1,-0.000001,-0.000003,0,,0.999955,0.00873,-0.001602,-0.003443,1.001081,-0.180146,-0.396168,0.999971,-0.006914,0.003144,0.006858,0.999824,0.017471,-0.003264,-0.017449,0.999842,,,,,,,30.3,,,
40501,1112464,-0.018723,0.184257,9.827209,-0.049497,0.012978,0.041101,,,,-0.001656,0.001342,0.004906,,,,,,,-0.000047,0.000461,0.024568,1,-0.000002,0.000002,0.000006,,0.999955,0.008728,-0.001601,-0.003437,1.000779,-0.180027,-0.395387,0.999971,-0.006901,0.003142,0.006845,0.999824,0.017466,-0.003262,-0.017444,0.999842,,,,,,,30.3,,,
40502,1112489,0.034842,0.158776,9.792639,0.004137,-0.012228,0.006258,,,,-0.00142,0.003574,0.001919,,,,,,,0.000087,0.000397,0.024482,1,-0.000002,0.000004,0.000002,,0.999955,0.008726,-0.001597,-0.003435,1.000523,-0.17958,-0.395172,0.999971,-0.006897,0.003134,0.006841,0.999824,0.017461,-0.003254,-0.01744,0.999843,,,,,,,30.3,,,
40503,1112514,0.028856,0.192628,9.785581,-0.001611,0.021738,-0.000227,,,,0.000367,0.001546,-0.004178,,,,-0.220131,-0.278118,0.380333,0.000072,0.000482,0.024464,1,0,0.000002,-0.000005,100246,0.999955,0.008726,-0.001596,-0.00344,1.000526,-0.179408,-0.395834,0.999971,-0.006909,0.003131,0.006853,0.999824,0.017462,-0.003251,-0.01744,0.999843,,,,,,,30.31,,,
40504,1112539,-0.013566,0.125946,9.803629,-0.044598,-0.044914,0.016522,,,,-0.000437,-0.000013,-0.000682,,,,,,,-0.000034,0.000315,0.024509,1,-0.000001,0,-0.000001,,0.999955,0.008725,-0.001596,-0.003442,1.000412,-0.179468,-0.396,0.999971,-0.006911,0.003132,0.006856,0.999824,0.01746,-0.003252,-0.017438,0.999843,,,,,,,30.31,,,
40505,1112564,0.080976,0.22837,9.834386,0.050467,0.056372,0.049359,,,,-0.001413,-0.00138,-0.001149,,,,,,,0.000202,0.000571,0.024586,1,-0.000002,-0.000002,-0.000001,,0.999955,0.008722,-0.001598,-0.003443,1.000148,-0.179724,-0.396129,0.999971,-0.006914,0.003137,0.006858,0.999824,0.017455,-0.003257,-0.017433,0.999843,,,,,,,30.31,,,
40506,1112589,0.019491,0.115234,9.789658,-0.011697,-0.055673,0.00247,,,,0.002193,-0.001507,-0.001675,,,,,,,0.000049,0.000288,0.024474,1,0.000003,-0.000002,-0.000002,,0.999955,0.008725,-0.001601,-0.003446,1.000411,-0.179996,-0.396441,0.999971,-0.006919,0.003142,0.006863,0.999824,0.01746,-0.003262,-0.017437,0.999843,,,,,,,30.31,,,
40507,1112614,0.013651,0.163019,9.787393,-0.017154,-0.00773,0.001022,,,,-0.000478,0.000467,0.002811,,,,-0.218225,-0.276647,0.380345,0.000034,0.000408,0.024468,1,-0.000001,0.000001,0.000004,100251,0.999955,0.008724,-0.001601,-0.003443,1.00029,-0.179996,-0.396106,0.999971,-0.006913,0.003142,0.006857,0.999824,0.017457,-0.003262,-0.017435,0.999843,,,,,,,30.3,,,
40508,1112639,0.026795,0.120865,9.821725,-0.004331,-0.050636,0.034654,,,,0.001387,0.002059,-0.000326,,,,,,,0.000067,0.000302,0.024554,1,0.000002,0.000003,0,,0.999955,0.008725,-0.001599,-0.003443,1.000425,-0.179761,-0.396103,0.999971,-0.006913,0.003137,0.006857,0.999824,0.01746,-0.003258,-0.017438,0.999843,,,,,,,30.3,,,
40509,1112664,0.023574,0.169622,9.805681,-0.007261,-0.001373,0.019453,,,,-0.003456,-0.000736,-0.000587,,,,,,,0.000059,0.000424,0.024514,1,-0.000004,-0.000001,-0.000001,,0.999955,0.00872,-0.0016,-0.003444,0.999879,-0.179925,-0.396257,0.999971,-0.006916,0.00314,0.00686,0.999824,0.01745,-0.00326,-0.017428,0.999843,,,,,,,30.3,,,
40510,1112689,-0.011603,0.12598,9.793997,-0.042708,-0.04473,0.006898,,,,0.001911,-0.00031,0.000458,,,,,,,-0.000029,0.000315,0.024485,1,0.000002,0,0.000001,,0.999955,0.008722,-0.001601,-0.003444,1.000101,-0.18003,-0.396261,0.999971,-0.006916,0.003142,0.00686,0.999824,0.017454,-0.003262,-0.017432,0.999843,,,,,,,30.3,,,
40511,1112714,0.040559,0.170812,9.774709,0.009862,0.000156,-0.011439,,,,-0.000621,0.000807,-0.000811,,,,-0.216303,-0.277156,0.377891,0.000101,0.000427,0.024437,1,-0.000001,0.000001,-0.000001,100254,0.999955,0.008721,-0.001601,-0.003446,0.999961,-0.179973,-0.396443,0.999971,-0.006919,0.003141,0.006863,0.999824,0.017452,-0.003261,-0.01743,0.999843,,,,,,,30.3,,,
40512,1112739,-0.009818,0.136327,9.813356,-0.040917,-0.034747,0.026443,,,,0.001902,-0.00018,0.001737,,,,,,,-0.000025,0.000341,0.024533,1,0.000002,0,0.000002,,0.999955,0.008723,-0.001601,-0.003444,1.000181,-0.180063,-0.396263,0.999971,-0.006916,0.003143,0.00686,0.999824,0.017455,-0.003263,-0.017433,0.999843,,,,,,,30.3,,,
40513,1112764,0.060744,0.198372,9.815359,0.029971,0.026806,0.029748,,,,0.000324,-0.001736,0.000658,,,,,,,0.000152,0.000496,0.024538,1,0,-0.000002,0.000001,,0.999955,0.008722,-0.001604,-0.003443,1.000165,-0.180375,-0.396145,0.999971,-0.006914,0.003148,0.006858,0.999824,0.017455,-0.003268,-0.017433,0.999843,,,,,,,30.3,,,
40514,1112789,0.019455,0.151344,9.811092,-0.011688,-0.019733,0.02453,,,,-0.002103,-0.001945,0.001319,,,,,,,0.000049,0.000378,0.024528,1,-0.000003,-0.000002,0.000002,,0.999955,0.008719,-0.001607,-0.003442,0.999812,-0.180716,-0.396029,0.999971,-0.006912,0.003154,0.006856,0.999824,0.017449,-0.003274,-0.017427,0.999843,,,,,,,30.3,,,
40515,1112814,0.02359,0.149316,9.787871,-0.007427,-0.021274,0.001291,,,,-0.003159,0.000542,0.00049,,,,-0.218731,-0.27467,0.379341,0.000059,0.000373,0.02447,1,-0.000004,0.000001,0.000001,100253,0.999955,0.008715,-0.001607,-0.003442,0.999307,-0.1807,-0.396026,0.999971,-0.006912,0.003154,0.006856,0.999824,0.01744,-0.003274,-0.017418,0.999843,,,,,,,30.3,,,
40516,1112839,0.00978,0.215895,9.80601,-0.020874,0.0448,0.020547,,,,0.004194,-0.000136,0.002974,,,,,,,0.000024,0.000539,0.024515,1,0.000005,0,0.000004,,0.999955,0.00872,-0.001608,-0.003439,0.999855,-0.180787,-0.395668,0.999971,-0.006906,0.003155,0.00685,0.999824,0.01745,-0.003275,-0.017428,0.999843,,,,,,,30.3,,,
40517,1112864,0.030588,0.155087,9.798598,-0.000367,-0.015938,0.012139,,,,0.000792,0.001951,-0.001663,,,,,,,0.000077,0.000388,0.024496,1,0.000001,0.000002,-0.000002,,0.999955,0.00872,-0.001606,-0.003441,0.999906,-0.180565,-0.395851,0.999971,-0.006909,0.003151,0.006853,0.999824,0.017451,-0.003271,-0.017429,0.999843,,,,,,,30.3,,,
40518,1112889,0.005588,0.187882,9.805512,-0.025193,0.016963,0.019547,,,,-0.000626,0.00061,-0.00035,,,,,,,0.000014,0.00047,0.024514,1,-0.000001,0.000001,0,,0.999955,0.008719,-0.001606,-0.003442,0.999765,-0.180536,-0.395968,0.999971,-0.006911,0.003151,0.006855,0.999824,0.017448,-0.003271,-0.017426,0.999843,,,,,,,30.3,,,
40519,1112914,0.002368,0.196017,9.795,-0.028124,0.025458,0.009167,,,,-0.003372,0.004534,-0.000793,,,,-0.218204,-0.278624,0.379859,0.000006,0.00049,0.024487,1,-0.000004,0.000006,-0.000001,100252,0.999955,0.008714,-0.0016,-0.003443,0.999231,-0.179945,-0.396138,0.999971,-0.006914,0.003141,0.006858,0.999824,0.017439,-0.003261,-0.017417,0.999843,,,,,,,30.31,,,
40520,1112939,-0.014197,0.177902,9.808111,-0.04505,0.00722,0.021908,,,,-0.001217,-0.001451,0.001357,,,,,,,-0.000036,0.000445,0.02452,1,-0.000002,-0.000002,0.000002,,0.999955,0.008712,-0.001603,-0.003442,0.999005,-0.180216,-0.396016,0.999971,-0.006912,0.003145,0.006856,0.999824,0.017435,-0.003265,-0.017413,0.999843,,,,,,,30.31,,,
40521,1112964,0.032067,0.171586,9.810305,0.001332,0.000535,0.024136,,,,-0.000173,0.00296,0.000671,,,,,,,0.00008,0.000429,0.024526,1,0,0.000004,0.000001,,0.999955,0.008712,-0.0016,-0.003441,0.998917,-0.179854,-0.395848,0.999971,-0.006909,0.003139,0.006853,0.999824,0.017433,-0.003259,-0.017411,0.999843,,,,,,,30.31,,,
40522,1112989,0.015109,0.177932,9.803321,-0.015578,0.007266,0.01721,,,,-0.002892,0.001275,0.000998,,,,,,,0.000038,0.000445,0.024508,1,-0.000004,0.000002,0.000001,,0.999955,0.008708,-0.001598,-0.00344,0.998451,-0.179734,-0.39577,0.999971,-0.006907,0.003137,0.006852,0.999825,0.017425,-0.003257,-0.017403,0.999843,,,,,,,30.31,,,
40523,1113014,0.029597,0.186452,9.804656,-0.001096,0.015773,0.01874,,,,-0.003532,-0.000365,0.001361,,,,-0.219687,-0.275159,0.379334,0.000074,0.000466,0.024512,1,-0.000004,0,0.000002,100257,0.999955,0.008703,-0.001599,-0.003439,0.997893,-0.17985,-0.395644,0.999971,-0.006905,0.003139,0.00685,0.999825,0.017416,-0.003259,-0.017394,0.999843,,,,,,,30.3,,,
40524,1113039,0.036628,0.109969,9.799074,0.005365,-0.060842,0.011848,,,,0.002383,-0.001237,0.002494,,,,,,,0.000091,0.000275,0.024498,1,0.000003,-0.000002,0.000003,,0.999955,0.008705,-0.001602,-0.003436,0.998181,-0.180093,-0.395358,0.999971,-0.0069,0.003143,0.006844,0.999825,0.017421,-0.003263,-0.017399,0.999843,,,,,,,30.3,,,
40525,1113064,0.051529,0.168998,9.79228,0.020747,-0.001753,0.006132,,,,0.000296,0.000679,-0.000563,,,,,,,0.000129,0.000422,0.024481,1,0,0.000001,-0.000001,,0.999955,0.008705,-0.001601,-0.003437,0.99816,-0.180055,-0.395407,0.999971,-0.006901,0.003143,0.006845,0.999825,0.01742,-0.003262,-0.017398,0.999843,,,,,,,30.3,,,
40526,1113089,-0.01209,0.148517,9.80613,-0.042985,-0.022172,0.019423,,,,0.003146,0.002044,0.001184,,,,,,,-0.00003,0.000371,0.024515,1,0.000004,0.000003,0.000001,,0.999955,0.008708,-0.001599,-0.003436,0.998559,-0.179826,-0.3953,0.999971,-0.006899,0.003139,0.006843,0.999825,0.017427,-0.003258,-0.017405,0.999843,,,,,,,30.3,,,
40527,1113114,0.074024,0.164719,9.800198,0.043446,-0.006322,0.014041,,,,-0.001158,0.005066,-0.000729,,,,-0.215341,-0.276663,0.380373,0.000185,0.000412,0.0245,1,-0.000001,0.000006,-0.000001,100256,0.999955,0.008707,-0.001593,-0.003437,0.998342,-0.179158,-0.39546,0.999971,-0.006902,0.003127,0.006846,0.999825,0.017423,-0.003247,-0.017401,0.999843,,,,,,,30.31,,,
40528,1113139,-0.013955,0.19025,9.792398,-0.04464,0.019851,0.006414,,,,0.001621,-0.003597,-0.001259,,,,,,,-0.000035,0.000476,0.024481,1,0.000002,-0.000004,-0.000002,,0.999955,0.008708,-0.001598,-0.003439,0.998523,-0.17973,-0.395718,0.999971,-0.006906,0.003137,0.006851,0.999825,0.017427,-0.003257,-0.017405,0.999843,,,,,,,30.31,,,
40529,1113164,0.04484,0.096646,9.791444,0.013557,-0.07425,0.004014,,,,0.003543,-0.000712,0.000506,,,,,,,0.000112,0.000241,0.024479,1,0.000004,-0.000001,0.000001,,0.999955,0.008712,-0.0016,-0.003438,0.998967,-0.179894,-0.395593,0.999971,-0.006904,0.00314,0.006849,0.999825,0.017434,-0.00326,-0.017412,0.999843,,,,,,,30.31,,,
40530,1113189,0.021947,0.246272,9.805035,-0.00823,0.0753,0.020141,,,,0.001351,0.002389,-0.000495,,,,,,,0.000055,0.000616,0.024513,1,0.000002,0.000003,-0.000001,,0.999955,0.008713,-0.001597,-0.00344,0.999109,-0.179611,-0.395726,0.999971,-0.006907,0.003135,0.006851,0.999825,0.017437,-0.003255,-0.017415,0.999843,,,,,,,30.31,,,
40531,1113214,0.006024,0.119747,9.79948,-0.02496,-0.050981,0.01233,,,,0.000545,0.002266,0.000919,,,,-0.220639,-0.276143,0.37834,0.000015,0.000299,0.024499,1,0.000001,0.000003,0.000001,100253,0.999955,0.008714,-0.001595,-0.003439,0.999136,-0.179348,-0.395657,0.999971,-0.006905,0.00313,0.00685,0.999825,0.017437,-0.00325,-0.017415,0.999843,,,,,,,30.3,,,
40532,1113239,0.071098,0.164439,9.781049,0.040409,-0.006502,-0.005116,,,,0.002024,-0.000016,0.002145,,,,,,,0.000178,0.000411,0.024453,1,0.000003,0,0.000003,,0.999955,0.008716,-0.001596,-0.003437,0.999373,-0.179416,-0.395418,0.999971,-0.006901,0.003131,0.006846,0.999825,0.017441,-0.003251,-0.017419,0.999843,,,,,,,30.3,,,
40533,1113264,0.016132,0.18665,9.805346,-0.014568,0.015691,0.019389,,,,0.00064,-0.001571,-0.000434,,,,,,,0.00004,0.000467,0.024513,1,0.000001,-0.000002,-0.000001,,0.999955,0.008716,-0.001598,-0.003437,0.999402,-0.179702,-0.395449,0.999971,-0.006902,0.003136,0.006846,0.999824,0.017442,-0.003256,-0.01742,0.999843,,,,,,,30.3,,,
40534,1113289,-0.013488,0.184605,9.801388,-0.044173,0.013949,0.015306,,,,-0.000085,-0.000267,0.00027,,,,,,,-0.000034,0.000462,0.024503,1,0,0,0,,0.999955,0.008715,-0.001599,-0.003437,0.999338,-0.1798,-0.395479,0.999971,-0.006902,0.003138,0.006847,0.999824,0.017441,-0.003258,-0.017419,0.999843,,,,,,,30.3,,,
40535,1113314,0.039128,0.171058,9.798455,0.008395,0.000065,0.012302,,,,0.000695,0.000861,0.001638,,,,-0.218189,-0.280108,0.378876,0.000098,0.000428,0.024496,1,0.000001,0.000001,0.000002,100252,0.999955,0.008716,-0.001599,-0.003436,0.999385,-0.179741,-0.39531,0.999971,-0.006899,0.003137,0.006844,0.999824,0.017442,-0.003257,-0.01742,0.999843,,,,,,,30.31,,,
40536,1113339,0.001553,0.18584,9.792256,-0.029095,0.015204,0.006244,,,,0.000691,-0.000149,-0.000007,,,,,,,0.000004,0.000465,0.024481,1,0.000001,0,0,,0.999955,0.008716,-0.001599,-0.003437,0.999433,-0.179822,-0.39538,0.999971,-0.006901,0.003138,0.006845,0.999824,0.017442,-0.003258,-0.01742,0.999843,,,,,,,30.31,,,
40537,1113364,0.019643,0.193765,9.800601,-0.011123,0.022833,0.014784,,,,0.00108,-0.002825,-0.001311,,,,,,,0.000049,0.000484,0.024502,1,0.000001,-0.000004,-0.000002,,0.999955,0.008717,-0.001603,-0.003438,0.999525,-0.180285,-0.395524,0.999971,-0.006903,0.003147,0.006847,0.999825,0.017444,-0.003266,-0.017422,0.999843,,,,,,,30.31,,,
40538,1113389,0.033304,0.098577,9.806538,0.002027,-0.072532,0.019103,,,,0.000616,0.002078,-0.000337,,,,,,,0.000083,0.000246,0.024516,1,0.000001,0.000003,0,,0.999955,0.008717,-0.001601,-0.003439,0.999562,-0.180047,-0.395635,0.999971,-0.006905,0.003142,0.006849,0.999825,0.017445,-0.003262,-0.017423,0.999843,,,,,,,30.31,,,
40539,1113414,0.103815,0.201786,9.79898,0.073192,0.030398,0.013568,,,,-0.001435,-0.000304,-0.00013,,,,-0.218221,-0.276644,0.38183,0.00026,0.000505,0.024497,1,-0.000002,0,0,100249,0.999955,0.008715,-0.001602,-0.003439,0.999305,-0.18015,-0.395723,0.999971,-0.006907,0.003144,0.006851,0.999825,0.01744,-0.003264,-0.017418,0.999843,,,,,,,30.3,,,
40540,1113439,-0.035588,0.078495,9.785366,-0.067027,-0.091856,-0.002635,,,,0.003246,-0.000316,-0.001159,,,,,,,-0.000089,0.000196,0.024463,1,0.000004,0,-0.000001,,0.999955,0.008719,-0.001603,-0.003442,0.999719,-0.180252,-0.395958,0.999971,-0.006911,0.003146,0.006855,0.999824,0.017447,-0.003266,-0.017425,0.999843,,,,,,,30.3,,,
40541,1113464,0.128762,0.212144,9.793329,0.09827,0.040586,0.008175,,,,-0.000054,0.001273,-0.000325,,,,,,,0.000322,0.00053,0.024483,1,0,0.000002,0,,0.999955,0.008718,-0.001602,-0.003441,0.99965,-0.18013,-0.395922,0.999971,-0.00691,0.003144,0.006854,0.999824,0.017446,-0.003264,-0.017424,0.999843,,,,,,,30.3,,,
40542,1113489,-0.042997,0.127969,9.817933,-0.074021,-0.042923,0.030767,,,,0.002325,0.003348,0.001436,,,,,,,-0.000107,0.00032,0.024545,1,0.000003,0.000004,0.000002,,0.999955,0.00872,-0.001598,-0.00344,0.999931,-0.179714,-0.395776,0.999971,-0.006908,0.003137,0.006852,0.999824,0.017451,-0.003257,-0.017429,0.999843,,,,,,,30.3,,,
40543,1113514,0.098163,0.173668,9.812021,0.067317,0.002003,0.026097,,,,-0.000834,-0.001229,-0.00148,,,,-0.21871,-0.276647,0.378855,0.000245,0.000434,0.02453,1,-0.000001,-0.000002,-0.000002,100251,0.999955,0.008719,-0.0016,-0.003442,0.99976,-0.179946,-0.396059,0.999971,-0.006912,0.003141,0.006857,0.999824,0.017448,-0.003261,-0.017426,0.999843,,,,,,,30.3,,,
40544,1113539,-0.044995,0.159659,9.817886,-0.075826,-0.011061,0.031267,,,,-0.001369,0.002126,-0.001185,,,,,,,-0.000112,0.000399,0.024545,1,-0.000002,0.000003,-0.000001,,0.999955,0.008717,-0.001598,-0.003444,0.999513,-0.179699,-0.396292,0.999971,-0.006917,0.003136,0.006861,0.999824,0.017444,-0.003256,-0.017422,0.999843,,,,,,,30.3,,,
40545,1113564,0.032402,0.154317,9.785984,0.001617,-0.016525,-0.000478,,,,0.002465,0.000908,-0.002661,,,,,,,0.000081,0.000386,0.024465,1,0.000003,0.000001,-0.000003,,0.999955,0.008719,-0.001598,-0.003447,0.999804,-0.179623,-0.396627,0.999971,-0.006922,0.003135,0.006867,0.999824,0.017449,-0.003255,-0.017427,0.999843,,,,,,,30.3,,,
40546,1113589,0.028961,0.153102,9.812759,-0.001748,-0.018237,0.026262,,,,0.002491,0.004099,-0.004339,,,,,,,0.000073,0.000383,0.024532,1,0.000003,0.000005,-0.000005,,0.999955,0.008722,-0.001593,-0.003453,1.000111,-0.179085,-0.397306,0.999971,-0.006934,0.003126,0.006879,0.999824,0.017454,-0.003246,-0.017432,0.999843,,,,,,,30.3,,,
40547,1113614,0.019985,0.181591,9.832976,-0.010861,0.009911,0.046946,,,,0.002394,-0.003077,0.003386,,,,-0.219664,-0.277135,0.379344,0.00005,0.000454,0.024582,1,0.000003,-0.000004,0.000004,100252,0.999955,0.008725,-0.001597,-0.00345,1.000401,-0.179594,-0.396897,0.999971,-0.006927,0.003135,0.006871,0.999824,0.017459,-0.003255,-0.017437,0.999843,,,,,,,30.31,,,
40548,1113639,0.050027,0.179251,9.771062,0.019563,0.008588,-0.014907,,,,-0.001626,0.002605,-0.001399,,,,,,,0.000125,0.000448,0.024428,1,-0.000002,0.000003,-0.000002,,0.999955,0.008722,-0.001595,-0.003452,1.000117,-0.179278,-0.397159,0.999971,-0.006932,0.003129,0.006876,0.999824,0.017454,-0.003249,-0.017432,0.999843,,,,,,,30.31,,,
40549,1113664,0.004997,0.117733,9.802292,-0.026143,-0.053326,0.0151,,,,0.003015,-0.001556,0.000467,,,,,,,0.000012,0.000294,0.024506,1,0.000004,-0.000002,0.000001,,0.999955,0.008725,-0.001597,-0.003451,1.000486,-0.179563,-0.397018,0.999971,-0.006929,0.003134,0.006873,0.999824,0.017461,-0.003254,-0.017439,0.999843,,,,,,,30.31,,,
40550,1113689,0.063331,0.214043,9.813833,0.032971,0.042413,0.028504,,,,0.000603,0.002658,0.000822,,,,,,,0.000158,0.000535,0.024535,1,0.000001,0.000003,0.000001,,0.999955,0.008726,-0.001594,-0.00345,1.000521,-0.179244,-0.396962,0.999971,-0.006928,0.003128,0.006873,0.999824,0.017461,-0.003249,-0.017439,0.999843,,,,,,,30.31,,,
40551,1113714,-0.013315,0.178123,9.80532,-0.043897,0.007106,0.019127,,,,0.001948,0.001449,0.001872,,,,-0.217259,-0.277645,0.377884,-0.000033,0.000445,0.024513,1,0.000002,0.000002,0.000002,100255,0.999955,0.008728,-0.001593,-0.003449,1.000748,-0.179101,-0.396758,0.999971,-0.006925,0.003126,0.006869,0.999824,0.017465,-0.003246,-0.017443,0.999843,,,,,,,30.3,,,
40552,1113739,0.013914,0.13957,9.801292,-0.016995,-0.031595,0.01451,,,,0.001929,-0.000559,0.002461,,,,,,,0.000035,0.000349,0.024503,1,0.000002,-0.000001,0.000003,,0.999955,0.00873,-0.001594,-0.003446,1.000971,-0.179247,-0.396476,0.999971,-0.00692,0.003128,0.006864,0.999824,0.017469,-0.003249,-0.017447,0.999843,,,,,,,30.3,,,
40553,1113764,0.027523,0.209609,9.799649,-0.002867,0.038584,0.014133,,,,-0.003269,0.000592,0.001249,,,,,,,0.000069,0.000524,0.024499,1,-0.000004,0.000001,0.000002,,0.999955,0.008725,-0.001594,-0.003444,1.00044,-0.179226,-0.396243,0.999971,-0.006916,0.003128,0.00686,0.999824,0.01746,-0.003248,-0.017438,0.999843,,,,,,,30.3,,,
40554,1113789,-0.011724,0.135674,9.788654,-0.042575,-0.035069,0.001728,,,,0.002516,0.000726,0.000045,,,,,,,-0.000029,0.000339,0.024472,1,0.000003,0.000001,0,,0.999955,0.008728,-0.001594,-0.003445,1.000749,-0.179182,-0.396302,0.999971,-0.006917,0.003127,0.006861,0.999824,0.017465,-0.003248,-0.017443,0.999843,,,,,,,30.3,,,
40555,1113814,0.033676,0.150848,9.778879,0.002909,-0.020068,-0.007639,,,,0.001984,-0.000459,0.00005,,,,-0.215815,-0.277153,0.380865,0.000084,0.000377,0.024447,1,0.000002,-0.000001,0,100252,0.999955,0.00873,-0.001595,-0.003445,1.000981,-0.179308,-0.396365,0.999971,-0.006918,0.00313,0.006862,0.999824,0.017469,-0.00325,-0.017447,0.999843,,,,,,,30.3,,,
40556,1113839,0.013657,0.168376,9.801078,-0.017146,-0.002695,0.0148,,,,-0.0008,-0.001793,-0.002523,,,,,,,0.000034,0.000421,0.024503,1,-0.000001,-0.000002,-0.000003,,0.999955,0.008728,-0.001598,-0.003449,1.000816,-0.179618,-0.396798,0.999971,-0.006925,0.003135,0.00687,0.999824,0.017467,-0.003255,-0.017445,0.999843,,,,,,,30.3,,,
40557,1113864,0.034733,0.140378,9.809303,0.0038,-0.031028,0.022599,,,,0.000841,0.001162,0.000487,,,,,,,0.000087,0.000351,0.024523,1,0.000001,0.000001,0.000001,,0.999955,0.008729,-0.001597,-0.003448,1.000874,-0.179514,-0.396662,0.999971,-0.006923,0.003133,0.006867,0.999824,0.017468,-0.003253,-0.017446,0.999843,,,,,,,30.3,,,
40558,1113889,0.019343,0.110243,9.797549,-0.011716,-0.060909,0.01027,,,,0.001898,0.001699,0.002965,,,,,,,0.000048,0.000275,0.024494,1,0.000002,0.000002,0.000004,,0.999955,0.008731,-0.001595,-0.003445,1.001093,-0.179338,-0.396301,0.999971,-0.006917,0.00313,0.006861,0.999824,0.017471,-0.00325,-0.017449,0.999843,,,,,,,30.3,,,
40559,1113914,0.032229,0.166296,9.796572,0.00147,-0.004833,0.010314,,,,-0.001021,-0.000769,-0.000416,,,,-0.21532,-0.27864,0.379887,0.000081,0.000416,0.024491,1,-0.000001,-0.000001,-0.000001,100255,0.999955,0.008729,-0.001597,-0.003446,1.000896,-0.179507,-0.396431,0.999971,-0.006919,0.003133,0.006863,0.999824,0.017468,-0.003253,-0.017446,0.999843,,,,,,,30.3,,,
40560,1113939,0.01291,0.137575,9.806037,-0.017996,-0.033517,0.019217,,,,-0.001626,0.00146,-0.000131,,,,,,,0.000032,0.000344,0.024515,1,-0.000002,0.000002,0,,0.999955,0.008726,-0.001595,-0.003446,1.000611,-0.179357,-0.396514,0.999971,-0.00692,0.00313,0.006865,0.999824,0.017463,-0.003251,-0.017441,0.999843,,,,,,,30.3,,,
40561,1113964,0.076607,0.187717,9.824559,0.045976,0.015565,0.038812,,,,0.005258,0.000871,0.000999,,,,,,,0.000192,0.000469,0.024561,1,0.000007,0.000001,0.000001,,0.999955,0.008732,-0.001595,-0.003445,1.001302,-0.179296,-0.396298,0.999971,-0.006917,0.003129,0.006861,0.999824,0.017475,-0.00325,-0.017453,0.999842,,,,,,,30.3,,,
40562,1113989,-0.043802,0.143793,9.807441,-0.074651,-0.027421,0.020549,,,,0.006937,0.001135,-0.000452,,,,,,,-0.000109,0.000359,0.024519,1,0.000009,0.000001,-0.000001,,0.999955,0.008741,-0.001594,-0.003446,1.002244,-0.179193,-0.396428,0.999971,-0.006919,0.003127,0.006863,0.999823,0.017491,-0.003248,-0.01747,0.999842,,,,,,,30.3,,,
40563,1114014,0.10104,0.172424,9.773304,0.070461,0.001121,-0.012629,,,,-0.00294,0.00009,0.000922,,,,-0.218686,-0.278124,0.381337,0.000253,0.000431,0.024433,1,-0.000004,0,0.000001,100258,0.999955,0.008737,-0.001594,-0.003445,1.001771,-0.179242,-0.396364,0.999971,-0.006918,0.003128,0.006862,0.999824,0.017483,-0.003249,-0.017461,0.999842,,,,,,,30.31,,,
40564,1114039,-0.049844,0.197576,9.802077,-0.080466,0.026608,0.016109,,,,0.002865,-0.002317,-0.000322,,,,,,,-0.000125,0.000494,0.024505,1,0.000004,-0.000003,0,,0.999955,0.00874,-0.001598,-0.003446,1.00213,-0.179633,-0.396484,0.999971,-0.00692,0.003135,0.006864,0.999824,0.017489,-0.003256,-0.017467,0.999842,,,,,,,30.31,,,
40565,1114064,0.055231,0.148292,9.817052,0.024335,-0.023615,0.030548,,,,0.000777,0.001418,0.00046,,,,,,,0.000138,0.000371,0.024543,1,0.000001,0.000002,0.000001,,0.999955,0.00874,-0.001597,-0.003445,1.002177,-0.179492,-0.39636,0.999971,-0.006918,0.003133,0.006862,0.999824,0.01749,-0.003253,-0.017468,0.999842,,,,,,,30.31,,,
40566,1114089,0.038582,0.212881,9.797573,0.008137,0.041501,0.012151,,,,-0.0011,-0.000228,-0.000063,,,,,,,0.000096,0.000532,0.024494,1,-0.000001,0,0,,0.999955,0.008738,-0.001597,-0.003446,1.001969,-0.179584,-0.396438,0.999971,-0.006919,0.003134,0.006863,0.999824,0.017487,-0.003255,-0.017465,0.999842,,,,,,,30.31,,,
40567,1114114,-0.001686,0.120167,9.798622,-0.032549,-0.050964,0.011452,,,,0.000157,0.004622,0.002068,,,,-0.218691,-0.278128,0.379357,-0.000004,0.0003,0.024497,1,0,0.000006,0.000003,100258,0.999955,0.008738,-0.001592,-0.003444,1.001939,-0.178988,-0.396198,0.999971,-0.006915,0.003124,0.006859,0.999824,0.017486,-0.003244,-0.017464,0.999842,,,,,,,30.31,,,
40568,1114139,0.072658,0.274435,9.801511,0.042982,0.102885,0.017267,,,,-0.003286,0.005303,-0.001194,,,,,,,0.000182,0.000686,0.024504,1,-0.000004,0.000007,-0.000001,,0.999955,0.008733,-0.001586,-0.003446,1.001417,-0.178285,-0.396424,0.999971,-0.006919,0.003112,0.006863,0.999824,0.017477,-0.003232,-0.017455,0.999842,,,,,,,30.31,,,
40569,1114164,-0.05062,0.054701,9.775758,-0.0819,-0.115735,-0.012707,,,,0.003234,-0.000806,0.001558,,,,,,,-0.000127,0.000137,0.024439,1,0.000004,-0.000001,0.000002,,0.999955,0.008737,-0.001588,-0.003443,1.001816,-0.178465,-0.396134,0.999971,-0.006914,0.003115,0.006858,0.999824,0.017484,-0.003235,-0.017462,0.999842,,,,,,,30.31,,,
40570,1114189,0.097541,0.246951,9.81264,0.067601,0.07481,0.027994,,,,0.001862,0.002835,0.002988,,,,,,,0.000244,0.000617,0.024532,1,0.000002,0.000004,0.000004,,0.999955,0.008739,-0.001585,-0.00344,1.00203,-0.178127,-0.395767,0.999971,-0.006907,0.003109,0.006852,0.999824,0.017488,-0.003229,-0.017466,0.999842,,,,,,,30.31,,,
40571,1114214,-0.035786,0.094814,9.801841,-0.066809,-0.076269,0.014119,,,,0.002711,0.000014,0.002796,,,,-0.218701,-0.277637,0.37787,-0.000089,0.000237,0.024505,1,0.000003,0,0.000003,100249,0.999955,0.008742,-0.001585,-0.003437,1.002366,-0.178192,-0.395435,0.999971,-0.006902,0.00311,0.006846,0.999824,0.017494,-0.00323,-0.017472,0.999842,,,,,,,30.31,,,
40572,1114239,0.066411,0.165587,9.770679,0.036082,-0.005606,-0.01548,,,,0.000206,0.002483,0.000481,,,,,,,0.000166,0.000414,0.024427,1,0,0.000003,0.000001,,0.999955,0.008742,-0.001583,-0.003437,1.002344,-0.177897,-0.395428,0.999971,-0.006901,0.003105,0.006846,0.999824,0.017493,-0.003225,-0.017471,0.999842,,,,,,,30.31,,,
40573,1114264,-0.033164,0.144633,9.807585,-0.063873,-0.026799,0.020743,,,,0.006149,-0.000937,0.002555,,,,,,,-0.000083,0.000361,0.024519,1,0.000008,-0.000001,0.000003,,0.999955,0.008749,-0.001584,-0.003433,1.00316,-0.178098,-0.395015,0.999972,-0.006894,0.003108,0.006839,0.999823,0.017507,-0.003229,-0.017486,0.999842,,,,,,,30.31,,,
40574,1114289,0.030117,0.121156,9.822845,-0.000655,-0.050799,0.035788,,,,-0.000319,0.002768,0.002883,,,,,,,0.000075,0.000303,0.024557,1,0,0.000003,0.000004,,0.999955,0.008748,-0.001581,-0.00343,1.003062,-0.177769,-0.394663,0.999972,-0.006888,0.003103,0.006833,0.999823,0.017506,-0.003223,-0.017484,0.999842,,,,,,,30.31,,,
40575,1114314,0.087355,0.170009,9.804511,0.056995,-0.002109,0.018488,,,,0.001625,0.002017,-0.000292,,,,-0.216288,-0.278141,0.37938,0.000219,0.000425,0.024511,1,0.000002,0.000003,0,100254,0.999955,0.008749,-0.001579,-0.003431,1.003244,-0.177539,-0.394768,0.999972,-0.00689,0.003099,0.006835,0.999823,0.017509,-0.003219,-0.017487,0.999842,,,,,,,30.31,,,
40576,1114339,-0.017517,0.118931,9.792137,-0.048351,-0.052156,0.004898,,,,-0.000663,-0.002208,0.002474,,,,,,,-0.000044,0.000297,0.02448,1,-0.000001,-0.000003,0.000003,,0.999955,0.008748,-0.001583,-0.003429,1.003096,-0.177922,-0.394487,0.999972,-0.006885,0.003105,0.00683,0.999824,0.017506,-0.003225,-0.017485,0.999842,,,,,,,30.31,,,
40577,1114364,0.059979,0.16789,9.790303,0.029542,-0.003561,0.004161,,,,-0.003107,0.000299,0.000481,,,,,,,0.00015,0.00042,0.024476,1,-0.000004,0,0.000001,,0.999955,0.008744,-0.001583,-0.003428,1.002587,-0.177941,-0.394371,0.999972,-0.006883,0.003106,0.006828,0.999824,0.017497,-0.003226,-0.017476,0.999842,,,,,,,30.31,,,
40578,1114389,0.031246,0.152438,9.801172,0.000577,-0.01915,0.014669,,,,0.001661,-0.001504,-0.000608,,,,,,,0.000078,0.000381,0.024503,1,0.000002,-0.000002,-0.000001,,0.999955,0.008745,-0.001585,-0.003429,1.002774,-0.178214,-0.39453,0.999972,-0.006886,0.00311,0.00683,0.999824,0.017501,-0.00323,-0.017479,0.999842,,,,,,,30.31,,,
40579,1114414,0.039085,0.200713,9.813332,0.008813,0.028826,0.027697,,,,0.001501,0.00168,0.002735,,,,-0.221127,-0.274651,0.382288,0.000098,0.000502,0.024533,1,0.000002,0.000002,0.000003,100256,0.999955,0.008747,-0.001584,-0.003426,1.002936,-0.17804,-0.394202,0.999972,-0.00688,0.003107,0.006825,0.999824,0.017504,-0.003227,-0.017482,0.999842,,,,,,,30.31,,,
40580,1114439,0.038238,0.195984,9.766793,0.008091,0.024954,-0.01892,,,,0.000175,0.001173,0.000743,,,,,,,0.000096,0.00049,0.024417,1,0,0.000001,0.000001,,0.999955,0.008747,-0.001583,-0.003426,1.002909,-0.177934,-0.394161,0.999972,-0.006879,0.003106,0.006824,0.999824,0.017503,-0.003225,-0.017481,0.999842,,,,,,,30.31,,,
40581,1114464,-0.042288,0.16333,9.779191,-0.07275,-0.007417,-0.007347,,,,0.001527,-0.000298,0.00103,,,,,,,-0.000106,0.000408,0.024448,1,0.000002,0,0.000001,,0.999955,0.008748,-0.001584,-0.003424,1.003064,-0.178041,-0.39399,0.999972,-0.006876,0.003107,0.006821,0.999824,0.017506,-0.003227,-0.017484,0.999842,,,,,,,30.31,,,
40582,1114489,0.0525,0.190291,9.793925,0.022265,0.018705,0.008152,,,,-0.000618,0.001951,-0.000322,,,,,,,0.000131,0.000476,0.024485,1,-0.000001,0.000002,0,,0.999955,0.008747,-0.001582,-0.003425,1.002924,-0.17782,-0.3941,0.999972,-0.006878,0.003104,0.006823,0.999824,0.017503,-0.003223,-0.017482,0.999842,,,,,,,30.31,,,
