PacketCounter,SampleTimeFine,Acc_X,Acc_Y,Acc_Z,Gyr_X,Gyr_Y,Gyr_Z,Mag_X,Mag_Y,Mag_Z,VelInc_X,VelInc_Y,VelInc_Z,OriInc_q0,OriInc_q1,OriInc_q2,OriInc_q3,Pressure,Quat_q0,Quat_q1,Quat_q2,Quat_q3,Roll,Pitch,Yaw,Mat[1][1],Mat[2][1],Mat[3][1],Mat[1][2],Mat[2][2],Mat[3][2],Mat[1][3],Mat[2][3],Mat[3][3]
15407,4510608,-0.088578,0.178763,9.828327,-0.000161,0.007058,0.002135,-0.221127,-0.354149,0.399479,-0.000221,0.000447,0.024571,1,0,0.000009,0.000003,100638,0.999961,0.008398,-0.002586,-0.000846,0.9626,-0.295483,-0.099414,0.999985,-0.001735,0.005157,0.001648,0.999858,0.0168,-0.005186,-0.016791,0.999846
15408,4510633,0.181187,0.186351,9.793137,0.000163,-0.002418,0.002205,,,,0.000453,0.000466,0.024483,1,0,-0.000003,0.000003,,0.999961,0.008397,-0.002589,-0.000844,0.962513,-0.295828,-0.099149,0.999985,-0.00173,0.005163,0.001644,0.999858,0.016798,-0.005191,-0.016789,0.999846
15409,4510658,-0.230217,0.099057,9.778666,0.000701,-0.000986,0.000712,,,,-0.000576,0.000248,0.024447,1,0.000001,-0.000001,0.000001,,0.999961,0.008397,-0.00259,-0.000843,0.962499,-0.295934,-0.099124,0.999985,-0.00173,0.005165,0.001643,0.999858,0.016798,-0.005193,-0.016789,0.999846
15410,4510683,0.339703,0.17327,9.755778,-0.001602,-0.000235,-0.002761,,,,0.000849,0.000433,0.024389,1,-0.000002,0,-0.000003,,0.999961,0.008394,-0.00259,-0.000847,0.962163,-0.295955,-0.099565,0.999985,-0.001738,0.005165,0.001651,0.999858,0.016792,-0.005194,-0.016783,0.999846
15411,4510708,-0.281788,0.175909,9.813951,0.006946,-0.002868,-0.000165,-0.222102,-0.353157,0.398475,-0.000705,0.000439,0.024535,1,0.000009,-0.000004,0,100638,0.999961,0.008402,-0.002593,-0.000848,0.96305,-0.296359,-0.099641,0.999985,-0.001739,0.005172,0.001652,0.999857,0.016807,-0.005201,-0.016799,0.999845
15412,4510733,0.261833,0.11073,9.775402,-0.002664,0.002807,-0.003049,,,,0.000655,0.000277,0.024439,1,-0.000003,0.000004,-0.000004,,0.999961,0.008398,-0.00259,-0.000852,0.962563,-0.295944,-0.100116,0.999985,-0.001747,0.005165,0.00166,0.999858,0.016799,-0.005194,-0.01679,0.999846
15413,4510758,-0.118261,0.198519,9.857819,0.00628,-0.000733,0.000428,,,,-0.000296,0.000496,0.024645,1,0.000008,-0.000001,0.000001,,0.999961,0.008404,-0.00259,-0.000853,0.963348,-0.296013,-0.100202,0.999985,-0.001749,0.005166,0.001662,0.999857,0.016813,-0.005195,-0.016804,0.999845
15414,4510783,0.153169,0.078916,9.742906,-0.001973,0.003546,0.001439,,,,0.000383,0.000197,0.024357,1,-0.000002,0.000004,0.000002,,0.999961,0.008401,-0.002586,-0.000851,0.962956,-0.295502,-0.100033,0.999985,-0.001746,0.005157,0.001659,0.999857,0.016806,-0.005186,-0.016797,0.999845
15415,4510808,-0.178599,0.251293,9.814404,0.009672,-0.00872,0.00233,-0.223553,-0.352159,0.399446,-0.000447,0.000628,0.024536,1,0.000012,-0.000011,0.000003,100638,0.999961,0.008412,-0.002597,-0.000849,0.964232,-0.296751,-0.099765,0.999985,-0.001741,0.005179,0.001654,0.999857,0.016828,-0.005208,-0.016819,0.999845
15416,4510833,0.271661,0.042559,9.789136,0.001013,0.004577,-0.000645,,,,0.000679,0.000106,0.024473,1,0.000001,0.000006,-0.000001,,0.999961,0.008412,-0.002591,-0.00085,0.964269,-0.296088,-0.099891,0.999985,-0.001743,0.005168,0.001656,0.999857,0.016829,-0.005196,-0.01682,0.999845
15417,4510858,-0.130326,0.35306,9.842299,0.004213,-0.004447,0.003418,,,,-0.000326,0.000882,0.024606,1,0.000005,-0.000006,0.000004,,0.999961,0.008417,-0.002596,-0.000846,0.964756,-0.296695,-0.099501,0.999985,-0.001737,0.005178,0.001649,0.999857,0.016837,-0.005207,-0.016828,0.999845
15418,4510883,0.049334,-0.024658,9.766436,-0.004159,0.004695,-0.001928,,,,0.000124,-0.000061,0.024416,1,-0.000005,0.000006,-0.000002,,0.999961,0.008411,-0.00259,-0.000849,0.964054,-0.296012,-0.099811,0.999985,-0.001742,0.005166,0.001655,0.999857,0.016825,-0.005195,-0.016816,0.999845
15419,4510908,0.083726,0.403202,9.815924,0.005392,-0.006478,0.001667,-0.22021,-0.3507,0.397492,0.000209,0.001008,0.02454,1,0.000007,-0.000008,0.000002,100637,0.999961,0.008416,-0.002598,-0.000848,0.964717,-0.296938,-0.099633,0.999985,-0.001739,0.005183,0.001651,0.999857,0.016836,-0.005211,-0.016828,0.999845
15420,4510933,-0.124078,-0.049262,9.789658,-0.000207,0.00216,0.001002,,,,-0.00031,-0.000123,0.024474,1,0,0.000003,0.000001,,0.999961,0.008415,-0.002596,-0.000847,0.964578,-0.296625,-0.099529,0.999985,-0.001737,0.005177,0.00165,0.999857,0.016834,-0.005206,-0.016825,0.999845
15421,4510958,0.269975,0.366585,9.840627,0.004534,0.000408,0.00023,,,,0.000675,0.000916,0.024602,1,0.000006,0.000001,0,,0.999961,0.00842,-0.002595,-0.000847,0.965113,-0.296529,-0.099556,0.999985,-0.001738,0.005175,0.00165,0.999857,0.016843,-0.005204,-0.016835,0.999845
15422,4510983,-0.207947,-0.001144,9.804344,0.002921,-0.001061,0.001166,,,,-0.00052,-0.000003,0.024511,1,0.000004,-0.000001,0.000001,,0.999961,0.008423,-0.002596,-0.000846,0.965423,-0.296678,-0.099437,0.999985,-0.001735,0.005178,0.001648,0.999857,0.016849,-0.005206,-0.01684,0.999845
15423,4511008,0.172365,0.302072,9.7569,0.000762,0.002385,-0.002062,-0.223545,-0.352153,0.402416,0.000431,0.000755,0.024392,1,0.000001,0.000003,-0.000003,100632,0.999961,0.008423,-0.002593,-0.000849,0.965425,-0.296326,-0.099771,0.999985,-0.001741,0.005172,0.001654,0.999857,0.016849,-0.0052,-0.01684,0.999845
15424,4511033,-0.100261,0.022969,9.831691,0.004233,0.00122,0.002884,,,,-0.000251,0.000057,0.024579,1,0.000005,0.000002,0.000004,,0.999961,0.008427,-0.002592,-0.000846,0.965921,-0.296152,-0.0994,0.999985,-0.001735,0.005169,0.001647,0.999857,0.016857,-0.005197,-0.016849,0.999845
15425,4511058,0.172686,0.2672,9.848692,0.00018,0.002006,0.001434,,,,0.000432,0.000668,0.024622,1,0,0.000003,0.000002,,0.999961,0.008426,-0.002589,-0.000845,0.965832,-0.29583,-0.099285,0.999985,-0.001733,0.005163,0.001646,0.999857,0.016856,-0.005192,-0.016847,0.999845
15426,4511083,-0.064203,0.0991,9.7528,-0.000447,-0.006959,0.002258,,,,-0.000161,0.000248,0.024382,1,-0.000001,-0.000009,0.000003,,0.999961,0.008425,-0.002597,-0.000842,0.965658,-0.296827,-0.099024,0.999985,-0.001728,0.005181,0.001641,0.999857,0.016853,-0.005209,-0.016844,0.999845
15427,4511108,-0.052959,0.195426,9.827611,0.005586,0.003173,-0.000381,-0.225472,-0.352145,0.400913,-0.000132,0.000488,0.024569,1,0.000007,0.000004,0,100635,0.999961,0.008431,-0.002593,-0.000843,0.96635,-0.296365,-0.099116,0.999985,-0.00173,0.005173,0.001642,0.999856,0.016865,-0.005201,-0.016856,0.999844
15428,4511133,0.106045,0.14003,9.756635,-0.001679,-0.005694,0.000694,,,,0.000265,0.00035,0.024392,1,-0.000002,-0.000007,0.000001,,0.999961,0.008428,-0.002601,-0.000843,0.966001,-0.297176,-0.099075,0.999985,-0.001729,0.005187,0.001641,0.999856,0.016859,-0.005215,-0.01685,0.999844
15429,4511158,-0.073008,0.108058,9.80773,0.000264,0.003105,-0.000228,,,,-0.000182,0.00027,0.024519,1,0,0.000004,0,,0.999961,0.008427,-0.002596,-0.000843,0.965924,-0.296694,-0.099144,0.999985,-0.00173,0.005178,0.001643,0.999857,0.016858,-0.005207,-0.016849,0.999845
15430,4511183,0.213575,0.260929,9.825185,-0.005636,-0.000925,0.001331,,,,0.000534,0.000653,0.024563,1,-0.000007,-0.000001,0.000002,,0.999961,0.008419,-0.002597,-0.000842,0.965008,-0.296823,-0.099001,0.999985,-0.001728,0.005181,0.00164,0.999857,0.016842,-0.005209,-0.016833,0.999845
15431,4511208,-0.177402,0.05837,9.760928,0.003145,-0.000218,0.000272,-0.22402,-0.352644,0.402414,-0.000444,0.000146,0.024402,1,0.000004,0,0,100644,0.999961,0.008422,-0.002598,-0.000842,0.96535,-0.296849,-0.099007,0.999985,-0.001728,0.005181,0.00164,0.999857,0.016848,-0.005209,-0.016839,0.999845
15432,4511233,0.26427,0.217529,9.794312,-0.003086,0.003593,-0.000145,,,,0.000661,0.000544,0.024486,1,-0.000004,0.000004,0,,0.999961,0.008417,-0.002593,-0.000843,0.9648,-0.296328,-0.099064,0.999985,-0.001729,0.005172,0.001642,0.999857,0.016838,-0.0052,-0.016829,0.999845
15433,4511258,-0.09184,0.111022,9.811022,0.001547,-0.006729,0.000627,,,,-0.00023,0.000277,0.024528,1,0.000002,-0.000008,0.000001,,0.999961,0.008418,-0.002601,-0.000843,0.964907,-0.297256,-0.099089,0.999985,-0.001729,0.005188,0.001642,0.999857,0.01684,-0.005216,-0.016831,0.999845
15434,4511283,0.063455,0.175374,9.790757,-0.004183,0.007314,0.000358,,,,0.000159,0.000439,0.024477,1,-0.000005,0.000009,0,,0.999961,0.008412,-0.002592,-0.000843,0.964199,-0.296204,-0.099065,0.999985,-0.001729,0.00517,0.001642,0.999857,0.016827,-0.005198,-0.016819,0.999845
15435,4511308,-0.061689,0.219593,9.828089,0.004276,-0.00439,0.001696,-0.223074,-0.351665,0.400934,-0.000154,0.000549,0.02457,1,0.000005,-0.000005,0.000002,100644,0.999961,0.008416,-0.002598,-0.000841,0.964702,-0.296831,-0.098878,0.999985,-0.001726,0.005181,0.001638,0.999857,0.016836,-0.005209,-0.016827,0.999845
15436,4511333,0.067409,0.117883,9.781575,0.00133,0.003531,-0.001717,,,,0.000169,0.000295,0.024454,1,0.000002,0.000004,-0.000002,,0.999961,0.008417,-0.002593,-0.000844,0.964786,-0.296315,-0.09916,0.999985,-0.001731,0.005172,0.001643,0.999857,0.016838,-0.0052,-0.016829,0.999845
15437,4511358,0.037574,0.252638,9.826205,0.003331,0.000078,0.001588,,,,0.000094,0.000631,0.024566,1,0.000004,0,0.000002,,0.999961,0.00842,-0.002593,-0.000842,0.965148,-0.29627,-0.099028,0.999985,-0.001728,0.005171,0.001641,0.999857,0.016844,-0.005199,-0.016835,0.999845
15438,4511383,0.043142,0.113257,9.773207,-0.000621,-0.000469,0.000707,,,,0.000108,0.000283,0.024433,1,-0.000001,-0.000001,0.000001,,0.999961,0.008418,-0.002593,-0.000842,0.96495,-0.296333,-0.098973,0.999985,-0.001727,0.005172,0.00164,0.999857,0.016841,-0.0052,-0.016832,0.999845
15439,4511408,-0.108073,0.242613,9.824298,-0.000057,0.003744,-0.002052,-0.224484,-0.354623,0.399944,-0.00027,0.000607,0.024561,1,0,0.000005,-0.000003,100635,0.999961,0.008417,-0.002588,-0.000845,0.964836,-0.295786,-0.099303,0.999985,-0.001733,0.005162,0.001646,0.999857,0.016839,-0.005191,-0.01683,0.999845
15440,4511433,0.14104,0.135749,9.773109,0.000728,-0.004515,0.00112,,,,0.000352,0.000339,0.024433,1,0.000001,-0.000006,0.000001,,0.999961,0.008417,-0.002594,-0.000844,0.964831,-0.296429,-0.099198,0.999985,-0.001731,0.005174,0.001644,0.999857,0.016838,-0.005202,-0.01683,0.999845
15441,4511458,-0.123739,0.055343,9.820914,0.003158,0.000977,-0.000779,,,,-0.000309,0.000138,0.024552,1,0.000004,0.000001,-0.000001,,0.999961,0.00842,-0.002592,-0.000846,0.965169,-0.29625,-0.099409,0.999985,-0.001735,0.005171,0.001648,0.999857,0.016844,-0.005199,-0.016836,0.999845
15442,4511483,0.214362,0.295439,9.814339,-0.006208,0.00002,0.000314,,,,0.000536,0.000739,0.024536,1,-0.000008,0,0,,0.999961,0.008412,-0.002592,-0.000846,0.964172,-0.296242,-0.099409,0.999985,-0.001735,0.00517,0.001648,0.999857,0.016827,-0.005199,-0.016818,0.999845
15443,4511508,-0.250121,0.018043,9.786799,0.003672,-0.004061,0.000035,-0.221609,-0.354147,0.398979,-0.000626,0.000045,0.024467,1,0.000005,-0.000005,0,100634,0.999961,0.008415,-0.002597,-0.000846,0.96459,-0.296818,-0.099459,0.999985,-0.001736,0.00518,0.001648,0.999857,0.016834,-0.005209,-0.016825,0.999845
15444,4511533,0.240857,0.237169,9.807211,-0.004344,0.004565,-0.001515,,,,0.000602,0.000593,0.024518,1,-0.000005,0.000006,-0.000002,,0.999961,0.008409,-0.002592,-0.000848,0.963861,-0.296154,-0.09971,0.999985,-0.00174,0.005169,0.001653,0.999857,0.016822,-0.005197,-0.016813,0.999845
15445,4511558,-0.107404,0.073797,9.789801,0.00611,-0.004046,0.000573,,,,-0.000269,0.000184,0.024475,1,0.000008,-0.000005,0.000001,,0.999961,0.008416,-0.002596,-0.000849,0.964621,-0.296697,-0.099746,0.999985,-0.001741,0.005178,0.001653,0.999857,0.016835,-0.005207,-0.016826,0.999845
15446,4511583,0.057446,0.211244,9.81901,-0.005621,0.000524,0.00067,,,,0.000144,0.000528,0.024548,1,-0.000007,0.000001,0.000001,,0.999961,0.008408,-0.002596,-0.000848,0.963708,-0.296617,-0.099694,0.999985,-0.00174,0.005177,0.001653,0.999857,0.016819,-0.005205,-0.01681,0.999845
15447,4511608,0.040037,0.14916,9.817979,0.007021,-0.003155,0.001655,-0.223979,-0.357099,0.398475,0.0001,0.000372,0.024545,1,0.000009,-0.000004,0.000002,100634,0.999961,0.008415,-0.0026,-0.000847,0.964604,-0.297067,-0.09951,0.999985,-0.001737,0.005185,0.001649,0.999857,0.016834,-0.005213,-0.016826,0.999845
15448,4511633,0.092847,0.111533,9.773731,-0.000948,0.001652,-0.000845,,,,0.000232,0.000279,0.024434,1,-0.000001,0.000002,-0.000001,,0.999961,0.008413,-0.002597,-0.000848,0.964361,-0.296823,-0.099672,0.999985,-0.00174,0.005181,0.001652,0.999857,0.01683,-0.005209,-0.016821,0.999845
15449,4511658,-0.028909,0.230145,9.810422,0.003856,-0.003372,0.000458,,,,-0.000072,0.000575,0.024526,1,0.000005,-0.000004,0.000001,,0.999961,0.008417,-0.002601,-0.000848,0.964798,-0.297269,-0.099658,0.999985,-0.001739,0.005188,0.001652,0.999857,0.016838,-0.005217,-0.016829,0.999845
15450,4511683,0.090303,0.05873,9.806181,0.00034,0.00334,0.001665,,,,0.000226,0.000147,0.024515,1,0,0.000004,0.000002,,0.999961,0.008417,-0.002597,-0.000846,0.964737,-0.296788,-0.099457,0.999985,-0.001736,0.00518,0.001648,0.999857,0.016837,-0.005208,-0.016828,0.999845
15451,4511708,-0.067174,0.307834,9.803292,0.004362,-0.004421,-0.000551,-0.222117,-0.351175,0.401436,-0.000168,0.000769,0.024508,1,0.000005,-0.000006,-0.000001,100636,0.999961,0.008421,-0.002603,-0.000847,0.965255,-0.297414,-0.099591,0.999985,-0.001738,0.005191,0.001651,0.999857,0.016846,-0.005219,-0.016837,0.999845
15452,4511733,-0.00325,0.095102,9.806299,-0.002059,0.000355,0.004002,,,,-0.000008,0.000238,0.024516,1,-0.000003,0,0.000005,,0.999961,0.008418,-0.002602,-0.000843,0.964849,-0.297367,-0.099062,0.999985,-0.001729,0.00519,0.001641,0.999857,0.016839,-0.005218,-0.01683,0.999845
15453,4511758,0.165407,0.256702,9.816956,0.000829,-0.001667,-0.001244,,,,0.000413,0.000642,0.024542,1,0.000001,-0.000002,-0.000002,,0.999961,0.008418,-0.002604,-0.000845,0.964854,-0.297565,-0.099363,0.999985,-0.001734,0.005193,0.001647,0.999857,0.016839,-0.005222,-0.01683,0.999845
15454,4511783,-0.170692,0.150729,9.771154,0.002979,-0.000665,-0.001761,,,,-0.000427,0.000377,0.024428,1,0.000004,-0.000001,-0.000002,,0.999961,0.00842,-0.002605,-0.000848,0.965174,-0.29765,-0.099662,0.999985,-0.001739,0.005195,0.001652,0.999857,0.016844,-0.005224,-0.016836,0.999845
15455,4511808,0.105518,0.224979,9.798858,0.003188,-0.004667,-0.001524,-0.224481,-0.35462,0.401429,0.000264,0.000562,0.024497,1,0.000004,-0.000006,-0.000002,100636,0.999961,0.008423,-0.00261,-0.00085,0.965523,-0.298309,-0.099937,0.999985,-0.001744,0.005206,0.001656,0.999857,0.016851,-0.005235,-0.016842,0.999845
15456,4511833,0.050249,0.084531,9.823966,-0.001466,0.003321,0.000376,,,,0.000126,0.000211,0.02456,1,-0.000002,0.000004,0,,0.999961,0.008421,-0.002606,-0.00085,0.965205,-0.297828,-0.09992,0.999985,-0.001744,0.005198,0.001656,0.999857,0.016845,-0.005227,-0.016836,0.999845
15457,4511858,0.133162,0.214413,9.774828,0.001117,-0.00018,0.001543,,,,0.000333,0.000536,0.024437,1,0.000001,0,0.000002,,0.999961,0.008421,-0.002606,-0.000849,0.96525,-0.29782,-0.099757,0.999985,-0.001741,0.005198,0.001653,0.999857,0.016846,-0.005226,-0.016837,0.999845
15458,4511883,-0.163112,0.166473,9.835647,0.004234,-0.000569,0.000209,,,,-0.000408,0.000416,0.024589,1,0.000005,-0.000001,0,,0.999961,0.008425,-0.002607,-0.000849,0.965748,-0.297896,-0.099773,0.999985,-0.001741,0.005199,0.001653,0.999857,0.016854,-0.005228,-0.016846,0.999844
15459,4511908,0.237773,0.164553,9.801698,-0.00024,0.000004,-0.00322,-0.222096,-0.353152,0.40095,0.000594,0.000411,0.024504,1,0,0,-0.000004,100629,0.999961,0.008424,-0.002607,-0.000853,0.965608,-0.297882,-0.100279,0.999985,-0.00175,0.005199,0.001662,0.999857,0.016852,-0.005228,-0.016843,0.999845
15460,4511933,-0.129547,0.111214,9.769892,0.007472,-0.002353,-0.001185,,,,-0.000324,0.000278,0.024425,1,0.000009,-0.000003,-0.000001,,0.999961,0.008433,-0.00261,-0.000855,0.966571,-0.29821,-0.1005,0.999985,-0.001754,0.005205,0.001666,0.999856,0.016869,-0.005234,-0.01686,0.999844
15461,4511958,0.149725,0.127499,9.796121,-0.003272,0.000059,-0.002365,,,,0.000374,0.000319,0.02449,1,-0.000004,0,-0.000003,,0.999961,0.008427,-0.002609,-0.000859,0.96599,-0.298158,-0.100916,0.999985,-0.001761,0.005204,0.001673,0.999856,0.016859,-0.005233,-0.01685,0.999844
15462,4511983,-0.074508,0.211613,9.829878,0.002614,-0.003774,0.000303,,,,-0.000187,0.000529,0.024575,1,0.000003,-0.000005,0,,0.999961,0.00843,-0.002614,-0.000859,0.966256,-0.298693,-0.100927,0.999985,-0.001761,0.005213,0.001673,0.999856,0.016863,-0.005242,-0.016854,0.999844
15463,4512008,0.010068,0.080797,9.755589,-0.004023,0.003601,-0.0029,-0.223549,-0.352156,0.400931,0.000025,0.000202,0.024389,1,-0.000005,0.000005,-0.000004,100639,0.999961,0.008424,-0.002609,-0.000863,0.965573,-0.298165,-0.101379,0.999985,-0.001769,0.005204,0.001681,0.999857,0.016851,-0.005233,-0.016842,0.999845
15464,4512033,0.150873,0.215524,9.803293,-0.000307,-0.005978,-0.003171,,,,0.000377,0.000539,0.024508,1,0,-0.000007,-0.000004,,0.999961,0.008422,-0.002617,-0.000867,0.965424,-0.299007,-0.101892,0.999985,-0.001778,0.005219,0.00169,0.999857,0.016849,-0.005248,-0.01684,0.999845
15465,4512058,-0.132227,0.027261,9.798954,-0.001478,0.002914,-0.004335,,,,-0.00033,0.000068,0.024497,1,-0.000002,0.000004,-0.000005,,0.999961,0.00842,-0.002613,-0.000874,0.965101,-0.298541,-0.102625,0.999985,-0.001791,0.00521,0.001703,0.999857,0.016843,-0.00524,-0.016834,0.999845
15466,4512083,0.187261,0.323227,9.783743,0.000111,-0.003196,-0.000045,,,,0.000468,0.000808,0.024459,1,0,-0.000004,0,,0.999961,0.008419,-0.002617,-0.000874,0.965009,-0.298992,-0.102684,0.999985,-0.001792,0.005218,0.001704,0.999857,0.016842,-0.005248,-0.016832,0.999845
15467,4512108,-0.130695,0.000545,9.815548,0.00379,0.00365,-0.00159,-0.222078,-0.355132,0.398979,-0.000327,0.000001,0.024539,1,0.000005,0.000005,-0.000002,100634,0.999961,0.008423,-0.002612,-0.000876,0.965445,-0.29846,-0.102948,0.999985,-0.001797,0.005209,0.001709,0.999857,0.016849,-0.005239,-0.01684,0.999845
15468,4512133,0.207561,0.383224,9.787707,-0.004248,0.001339,0.002339,,,,0.000519,0.000958,0.024469,1,-0.000005,0.000002,0.000003,,0.999961,0.008416,-0.00261,-0.000874,0.964726,-0.298268,-0.102655,0.999985,-0.001792,0.005206,0.001704,0.999857,0.016837,-0.005235,-0.016828,0.999845
15469,4512158,-0.168217,-0.026604,9.80072,0.003045,-0.000472,0.00056,,,,-0.000421,-0.000067,0.024502,1,0.000004,-0.000001,0.000001,,0.999961,0.008419,-0.002611,-0.000874,0.965048,-0.298299,-0.102695,0.999985,-0.001792,0.005206,0.001704,0.999857,0.016842,-0.005236,-0.016833,0.999845
15470,4512183,0.198725,0.357946,9.819653,-0.001629,-0.00111,-0.000677,,,,0.000497,0.000895,0.024549,1,-0.000002,-0.000001,-0.000001,,0.999961,0.008416,-0.002612,-0.000875,0.964707,-0.29845,-0.10284,0.999985,-0.001795,0.005209,0.001707,0.999857,0.016836,-0.005238,-0.016827,0.999845
15471,4512208,-0.133146,0.075091,9.780647,0.001522,-0.004351,-0.000831,-0.224013,-0.353636,0.400934,-0.000333,0.000188,0.024452,1,0.000002,-0.000005,-0.000001,100638,0.999961,0.008417,-0.002617,-0.000877,0.964817,-0.299065,-0.103014,0.999985,-0.001798,0.00522,0.00171,0.999857,0.016838,-0.005249,-0.016829,0.999845
15472,4512220,,,,,,,,,,,,,,,,,,,,,,,,,,,,,,,,,
15473,4512233,0.080406,0.198909,9.813334,-0.001109,0.006346,0.000437,,,,0.000201,0.000497,0.024533,1,-0.000001,0.000008,0.000001,,0.999961,0.008415,-0.002609,-0.000877,0.96455,-0.298152,-0.102982,0.999985,-0.001797,0.005204,0.00171,0.999857,0.016834,-0.005233,-0.016824,0.999845
15474,4512258,-0.050827,0.185538,9.812902,0.003932,-0.007971,-0.002199,,,,-0.000128,0.000464,0.024532,1,0.000005,-0.00001,-0.000003,,0.999961,0.008419,-0.002619,-0.000881,0.965002,-0.29925,-0.1035,0.999985,-0.001806,0.005223,0.001718,0.999857,0.016841,-0.005253,-0.016832,0.999844
15475,4512283,0.019539,0.17907,9.787869,-0.000261,0.002446,0.000951,,,,0.000049,0.000448,0.02447,1,0,0.000003,0.000001,,0.999961,0.008417,-0.002616,-0.00088,0.964856,-0.298896,-0.103403,0.999985,-0.001805,0.005217,0.001717,0.999857,0.016839,-0.005246,-0.01683,0.999845
15476,4512308,0.070388,0.159552,9.800792,-0.000878,-0.001287,-0.001569,-0.22307,-0.35216,0.400441,0.000176,0.000399,0.024502,1,-0.000001,-0.000002,-0.000002,100628,0.999961,0.008415,-0.002617,-0.000883,0.964623,-0.29907,-0.103675,0.999985,-0.001809,0.00522,0.001721,0.999857,0.016835,-0.005249,-0.016826,0.999845
15477,4512333,-0.011018,0.135067,9.7754,0.001106,-0.000846,0.00112,,,,-0.000028,0.000338,0.024439,1,0.000001,-0.000001,0.000001,,0.999961,0.008416,-0.002618,-0.000882,0.964673,-0.299188,-0.103562,0.999985,-0.001807,0.005222,0.001719,0.999857,0.016836,-0.005251,-0.016826,0.999845
15478,4512358,0.12991,0.161727,9.82003,0.004218,-0.001772,0.000907,,,,0.000325,0.000404,0.02455,1,0.000005,-0.000002,0.000001,,0.999961,0.00842,-0.00262,-0.000881,0.965161,-0.299406,-0.103531,0.999985,-0.001807,0.005226,0.001719,0.999857,0.016844,-0.005255,-0.016835,0.999844
15479,4512383,-0.097958,0.140349,9.820294,0.001607,0.000616,-0.000733,,,,-0.000245,0.000351,0.024551,1,0.000002,0.000001,-0.000001,,0.999961,0.008421,-0.002619,-0.000883,0.965284,-0.29931,-0.10368,0.999985,-0.00181,0.005224,0.001721,0.999857,0.016846,-0.005254,-0.016837,0.999844
15480,4512408,0.159711,0.190279,9.780075,-0.003038,0.000257,0.001151,-0.226419,-0.353126,0.401898,0.000399,0.000476,0.02445,1,-0.000004,0,0.000001,100634,0.999961,0.008416,-0.002619,-0.000882,0.96474,-0.29927,-0.103559,0.999985,-0.001807,0.005223,0.001719,0.999857,0.016837,-0.005253,-0.016828,0.999845
15481,4512433,-0.004409,0.066234,9.793711,0.002,0.000926,0.0024,,,,-0.000011,0.000165,0.024484,1,0.000003,0.000001,0.000003,,0.999961,0.008418,-0.002618,-0.00088,0.964911,-0.299105,-0.103339,0.999985,-0.001804,0.00522,0.001715,0.999857,0.01684,-0.00525,-0.016831,0.999845
15482,4512458,-0.094697,0.150858,9.810803,0.002375,0.000861,-0.000741,,,,-0.000237,0.000377,0.024527,1,0.000003,0.000001,-0.000001,,0.999961,0.00842,-0.002617,-0.000881,0.965143,-0.298974,-0.103488,0.999985,-0.001806,0.005218,0.001718,0.999857,0.016844,-0.005248,-0.016835,0.999845
15483,4512483,0.158372,0.196684,9.763146,-0.00142,0.000399,0.001585,,,,0.000396,0.000492,0.024408,1,-0.000002,0,0.000002,,0.999961,0.008417,-0.002616,-0.00088,0.964831,-0.298914,-0.103305,0.999985,-0.001803,0.005217,0.001715,0.999857,0.016838,-0.005247,-0.016829,0.999845
15484,4512508,-0.110833,0.127847,9.845972,0.002252,-0.00131,-0.001985,-0.224025,-0.353147,0.398457,-0.000277,0.000319,0.024615,1,0.000003,-0.000002,-0.000002,100640,0.999961,0.008419,-0.002618,-0.000882,0.965047,-0.299091,-0.103638,0.999985,-0.001809,0.00522,0.001721,0.999857,0.016842,-0.00525,-0.016833,0.999845
15485,4512533,0.20942,0.14728,9.780262,0.002351,-0.000675,0.001927,,,,0.000524,0.000368,0.024451,1,0.000003,-0.000001,0.000002,,0.999961,0.008421,-0.002618,-0.00088,0.965274,-0.299187,-0.103408,0.999985,-0.001805,0.005222,0.001717,0.999857,0.016846,-0.005251,-0.016837,0.999845
15486,4512558,-0.154646,0.196337,9.804676,0.003835,-0.00159,0.002103,,,,-0.000387,0.000491,0.024512,1,0.000005,-0.000002,0.000003,,0.999961,0.008425,-0.00262,-0.000878,0.965707,-0.299381,-0.103168,0.999985,-0.001801,0.005225,0.001712,0.999857,0.016854,-0.005255,-0.016845,0.999844
15487,4512583,0.147397,0.140105,9.781649,-0.002527,0.00167,-0.000075,,,,0.000369,0.00035,0.024454,1,-0.000003,0.000002,0,,0.999961,0.008421,-0.002618,-0.000879,0.965237,-0.299135,-0.10322,0.999985,-0.001802,0.005221,0.001713,0.999857,0.016846,-0.00525,-0.016836,0.999845
15488,4512608,-0.062039,0.187277,9.849642,0.003868,0.00009,-0.001071,-0.221623,-0.352663,0.399962,-0.000155,0.000468,0.024624,1,0.000005,0,-0.000001,100626,0.999961,0.008425,-0.002618,-0.00088,0.965684,-0.299114,-0.103418,0.999985,-0.001805,0.00522,0.001717,0.999857,0.016853,-0.00525,-0.016844,0.999844
15489,4512633,0.044577,0.237659,9.826471,-0.002758,0.001317,0.002002,,,,0.000112,0.000594,0.024566,1,-0.000003,0.000002,0.000003,,0.999961,0.00842,-0.002616,-0.000878,0.965179,-0.298924,-0.103173,0.999985,-0.001801,0.005217,0.001713,0.999857,0.016845,-0.005247,-0.016835,0.999845
15490,4512658,0.038327,0.062808,9.793591,0.002297,0.001424,0.002397,,,,0.000096,0.000157,0.024484,1,0.000003,0.000002,0.000003,,0.999961,0.008422,-0.002614,-0.000876,0.965392,-0.298688,-0.102905,0.999985,-0.001796,0.005213,0.001708,0.999857,0.016848,-0.005243,-0.016839,0.999845
15491,4512683,-0.06561,0.24392,9.813001,-0.003166,0.001865,0.002088,,,,-0.000164,0.00061,0.024532,1,-0.000004,0.000002,0.000003,,0.999961,0.008417,-0.002612,-0.000874,0.964828,-0.29842,-0.102646,0.999985,-0.001791,0.005208,0.001704,0.999857,0.016838,-0.005238,-0.016829,0.999845
15492,4512708,0.063315,0.078789,9.789705,-0.000337,-0.000577,0.002175,-0.222097,-0.353651,0.398477,0.000158,0.000197,0.024474,1,0,-0.000001,0.000003,100636,0.999961,0.008416,-0.002612,-0.000871,0.96467,-0.298501,-0.102381,0.999985,-0.001787,0.00521,0.001699,0.999857,0.016836,-0.005239,-0.016827,0.999845
15493,4512733,0.099102,0.248882,9.815886,-0.002094,-0.001624,-0.001387,,,,0.000248,0.000622,0.02454,1,-0.000003,-0.000002,-0.000002,,0.999961,0.008412,-0.002614,-0.000874,0.964263,-0.298725,-0.102629,0.999985,-0.001791,0.005214,0.001703,0.999857,0.016829,-0.005243,-0.016819,0.999845
15494,4512758,-0.099803,0.078215,9.789276,0.000555,0.000035,-0.001328,,,,-0.00025,0.000196,0.024473,1,0.000001,0,-0.000002,,0.999961,0.008412,-0.002614,-0.000876,0.964229,-0.298678,-0.102887,0.999985,-0.001796,0.005213,0.001708,0.999857,0.016828,-0.005242,-0.016819,0.999845
15495,4512783,0.186602,0.244347,9.778666,-0.000329,-0.001636,-0.000471,,,,0.000466,0.000611,0.024447,1,0,-0.000002,-0.000001,,0.999961,0.008411,-0.002616,-0.000877,0.964074,-0.298906,-0.103003,0.999985,-0.001798,0.005217,0.00171,0.999857,0.016825,-0.005246,-0.016816,0.999845
15496,4512808,-0.042358,0.043506,9.823631,0.005602,0.002553,-0.001951,-0.22258,-0.353153,0.399461,-0.000106,0.000108,0.024559,1,0.000007,0.000003,-0.000002,100630,0.999961,0.008417,-0.002613,-0.00088,0.96477,-0.298529,-0.103322,0.999985,-0.001803,0.00521,0.001715,0.999857,0.016837,-0.00524,-0.016828,0.999845
15497,4512833,0.105751,0.259433,9.777164,0.000378,0.001455,-0.000148,,,,0.000264,0.000649,0.024443,1,0,0.000002,0,,0.999961,0.008416,-0.002611,-0.00088,0.964716,-0.298315,-0.103384,0.999985,-0.001804,0.005207,0.001716,0.999857,0.016836,-0.005236,-0.016827,0.999845
15498,4512858,-0.057863,0.107695,9.788179,0.000025,-0.000994,0.001615,,,,-0.000145,0.000269,0.02447,1,0,-0.000001,0.000002,,0.999961,0.008415,-0.002612,-0.000879,0.964604,-0.298422,-0.103227,0.999985,-0.001802,0.005208,0.001714,0.999857,0.016834,-0.005238,-0.016825,0.999845
15499,4512883,0.119393,0.223505,9.808374,-0.001507,-0.0007,-0.001106,,,,0.000298,0.000559,0.024521,1,-0.000002,-0.000001,-0.000001,,0.999961,0.008412,-0.002613,-0.000881,0.964281,-0.298514,-0.103432,0.999985,-0.001805,0.00521,0.001717,0.999857,0.016829,-0.00524,-0.01682,0.999845
15500,4512908,0.069515,0.079495,9.802771,0.00223,0.00226,0.001702,-0.222097,-0.353153,0.400455,0.000174,0.000199,0.024507,1,0.000003,0.000003,0.000002,100632,0.999961,0.008414,-0.00261,-0.000879,0.964491,-0.298188,-0.103228,0.999985,-0.001802,0.005204,0.001714,0.999857,0.016833,-0.005234,-0.016823,0.999845
15501,4512933,0.00023,0.263011,9.789608,0.001445,-0.000666,-0.000863,,,,0.000001,0.000657,0.024474,1,0.000002,-0.000001,-0.000001,,0.999961,0.008415,-0.00261,-0.00088,0.96459,-0.298276,-0.103398,0.999985,-0.001805,0.005206,0.001717,0.999857,0.016834,-0.005236,-0.016825,0.999845
15502,4512958,-0.000589,0.090848,9.816241,0.002354,-0.000298,0.000473,,,,-0.000001,0.000227,0.024541,1,0.000003,0,0.000001,,0.999961,0.008417,-0.00261,-0.000881,0.964812,-0.298281,-0.103423,0.999985,-0.001805,0.005206,0.001717,0.999857,0.016838,-0.005236,-0.016829,0.999845
15503,4512983,0.002414,0.221591,9.800575,0.002148,0.00172,0.000816,,,,0.000006,0.000554,0.024501,1,0.000003,0.000002,0.000001,,0.999961,0.008419,-0.002608,-0.00088,0.965011,-0.29803,-0.103347,0.999985,-0.001804,0.005202,0.001716,0.999857,0.016842,-0.005231,-0.016832,0.999845
15504,4513008,0.010295,0.076291,9.770417,0.001844,0.003112,-0.001892,-0.224013,-0.353636,0.400934,0.000026,0.000191,0.024426,1,0.000002,0.000004,-0.000002,100635,0.999961,0.00842,-0.002604,-0.000883,0.965169,-0.297574,-0.103655,0.999985,-0.001809,0.005194,0.001721,0.999857,0.016844,-0.005223,-0.016835,0.999845
15505,4513033,-0.051393,0.273475,9.880589,0.001327,0.002383,-0.00321,,,,-0.000128,0.000684,0.024701,1,0.000002,0.000003,-0.000004,,0.999961,0.008421,-0.002601,-0.000887,0.965253,-0.297219,-0.104154,0.999985,-0.001818,0.005187,0.00173,0.999857,0.016846,-0.005217,-0.016837,0.999845
15506,4513058,0.063686,0.142252,9.761002,-0.003459,-0.000228,-0.002764,,,,0.000159,0.000356,0.024402,1,-0.000004,0,-0.000003,,0.999961,0.008416,-0.002601,-0.000892,0.964646,-0.297206,-0.10468,0.999985,-0.001827,0.005187,0.001739,0.999857,0.016835,-0.005217,-0.016826,0.999845
15507,4513083,-0.072508,0.127569,9.762118,0.00452,0.000194,-0.001064,,,,-0.000181,0.000319,0.024405,1,0.000006,0,-0.000001,,0.999961,0.00842,-0.002601,-0.000893,0.965186,-0.297169,-0.104877,0.999985,-0.00183,0.005187,0.001743,0.999857,0.016845,-0.005217,-0.016835,0.999845
15508,4513108,0.150821,0.161,9.846141,0.001787,0.003982,0.001115,-0.222097,-0.353153,0.400455,0.000377,0.000402,0.024615,1,0.000002,0.000005,0.000001,100636,0.999961,0.008422,-0.002596,-0.000892,0.965333,-0.296596,-0.104753,0.999985,-0.001828,0.005177,0.001741,0.999857,0.016847,-0.005207,-0.016838,0.999845
15509,4513133,-0.036258,0.227246,9.792946,0.00234,-0.003177,-0.000779,,,,-0.000091,0.000568,0.024482,1,0.000003,-0.000004,-0.000001,,0.999961,0.008424,-0.0026,-0.000894,0.965561,-0.297043,-0.104917,0.999985,-0.001831,0.005184,0.001744,0.999857,0.016851,-0.005214,-0.016842,0.999845
15510,4513158,0.017626,0.1059,9.794831,0.002692,0.001668,-0.000565,,,,0.000044,0.000265,0.024487,1,0.000003,0.000002,-0.000001,,0.999961,0.008426,-0.002597,-0.000894,0.965832,-0.296764,-0.104983,0.999985,-0.001832,0.005179,0.001745,0.999857,0.016856,-0.00521,-0.016847,0.999845
15511,4513183,0.200311,0.149596,9.813401,0.004425,-0.00255,0.001187,,,,0.000501,0.000374,0.024534,1,0.000006,-0.000003,0.000001,,0.999961,0.008431,-0.002601,-0.000893,0.966357,-0.297127,-0.104864,0.999985,-0.00183,0.005186,0.001743,0.999856,0.016865,-0.005216,-0.016856,0.999845
15512,4513208,-0.072643,0.173499,9.789467,0.001045,-0.001061,0.002164,-0.224967,-0.354621,0.399444,-0.000182,0.000434,0.024474,1,0.000001,-0.000001,0.000003,100637,0.999961,0.008431,-0.002602,-0.000891,0.966397,-0.297278,-0.104602,0.999985,-0.001826,0.005188,0.001738,0.999856,0.016866,-0.005218,-0.016857,0.999845
15513,4513233,0.1108,0.199921,9.786938,0.003219,0.000737,0.002018,,,,0.000277,0.0005,0.024467,1,0.000004,0.000001,0.000003,,0.999961,0.008434,-0.002601,-0.000889,0.966748,-0.297171,-0.104356,0.999985,-0.001821,0.005187,0.001734,0.999856,0.016872,-0.005217,-0.016863,0.999844
15514,4513258,0.113373,0.137038,9.847019,0.002684,-0.000212,-0.00096,,,,0.000283,0.000342,0.024618,1,0.000003,0,-0.000001,,0.999961,0.008436,-0.002601,-0.000891,0.96702,-0.29716,-0.104636,0.999985,-0.001826,0.005186,0.001738,0.999856,0.016877,-0.005216,-0.016867,0.999844
15515,4513283,-0.032943,0.153413,9.797047,0.002519,0.004619,0.001059,,,,-0.000082,0.000383,0.024493,1,0.000003,0.000006,0.000001,,0.999961,0.008439,-0.002595,-0.00089,0.967272,-0.296495,-0.104519,0.999985,-0.001824,0.005175,0.001737,0.999856,0.016881,-0.005205,-0.016872,0.999844
15516,4513308,-0.021723,0.233203,9.777451,-0.000763,-0.001776,0.001391,-0.224045,-0.351168,0.399437,-0.000054,0.000583,0.024444,1,-0.000001,-0.000002,0.000002,100638,0.999961,0.008437,-0.002597,-0.000889,0.967053,-0.296747,-0.104369,0.999985,-0.001822,0.005179,0.001734,0.999856,0.016877,-0.005209,-0.016868,0.999844
15517,4513333,-0.070156,0.113518,9.822105,0.001267,0.002467,-0.000517,,,,-0.000175,0.000284,0.024555,1,0.000002,0.000003,-0.000001,,0.999961,0.008437,-0.002594,-0.00089,0.967127,-0.296387,-0.104482,0.999985,-0.001824,0.005173,0.001736,0.999856,0.016879,-0.005203,-0.016869,0.999844
15518,4513358,0.141627,0.245904,9.813523,-0.000958,-0.00017,0.004195,,,,0.000354,0.000615,0.024534,1,-0.000001,0,0.000005,,0.999961,0.008435,-0.002594,-0.000886,0.966872,-0.296383,-0.103993,0.999985,-0.001815,0.005173,0.001727,0.999856,0.016874,-0.005203,-0.016865,0.999844
15519,4513383,0.059146,0.107687,9.78992,0.000713,-0.000699,0.004075,,,,0.000148,0.000269,0.024475,1,0.000001,-0.000001,0.000005,,0.999961,0.008435,-0.002595,-0.000881,0.966863,-0.296487,-0.103456,0.999985,-0.001806,0.005175,0.001718,0.999856,0.016874,-0.005204,-0.016865,0.999844
15520,4513408,-0.165088,0.210896,9.779451,0.004511,-0.001667,0.000585,-0.223046,-0.354135,0.400945,-0.000413,0.000527,0.024449,1,0.000006,-0.000002,0.000001,100641,0.999961,0.00844,-0.002597,-0.000881,0.967401,-0.296721,-0.103422,0.999985,-0.001805,0.005179,0.001717,0.999856,0.016883,-0.005208,-0.016874,0.999844
15521,4513433,0.128233,0.084961,9.756399,0.000488,0.00243,-0.00232,,,,0.000321,0.000212,0.024391,1,0.000001,0.000003,-0.000003,,0.999961,0.008439,-0.002594,-0.000884,0.967365,-0.296361,-0.103793,0.999985,-0.001812,0.005172,0.001724,0.999856,0.016883,-0.005202,-0.016874,0.999844
15522,4513458,-0.082684,0.269473,9.841038,0.000466,-0.003767,0.003219,,,,-0.000207,0.000674,0.024603,1,0.000001,-0.000005,0.000004,,0.999961,0.008439,-0.002598,-0.000881,0.967315,-0.29687,-0.103444,0.999985,-0.001805,0.005181,0.001718,0.999856,0.016882,-0.005211,-0.016873,0.999844
15523,4513483,0.177688,0.032368,9.779217,0.003538,0.003127,0.000241,,,,0.000444,0.000081,0.024448,1,0.000004,0.000004,0,,0.999961,0.008442,-0.002594,-0.000881,0.967714,-0.296417,-0.103447,0.999985,-0.001805,0.005173,0.001718,0.999856,0.016889,-0.005203,-0.01688,0.999844
15524,4513508,-0.108021,0.250355,9.807035,0.004558,0.001646,-0.001821,-0.221623,-0.352663,0.399962,-0.00027,0.000626,0.024518,1,0.000006,0.000002,-0.000002,100634,0.999961,0.008447,-0.002592,-0.000884,0.96826,-0.296171,-0.103749,0.999985,-0.001811,0.005169,0.001723,0.999856,0.016898,-0.005199,-0.016889,0.999844
15525,4513533,0.013209,0.078772,9.756542,-0.003992,-0.002009,-0.001428,,,,0.000033,0.000197,0.024391,1,-0.000005,-0.000003,-0.000002,,0.999961,0.008441,-0.002595,-0.000886,0.967581,-0.296449,-0.104003,0.999985,-0.001815,0.005174,0.001728,0.999856,0.016886,-0.005204,-0.016877,0.999844
15526,4513558,0.147166,0.225809,9.853433,0.002991,0.001354,-0.000836,,,,0.000368,0.000564,0.024634,1,0.000004,0.000002,-0.000001,,0.999961,0.008444,-0.002593,-0.000888,0.967896,-0.296214,-0.104225,0.999985,-0.001819,0.00517,0.001731,0.999856,0.016892,-0.0052,-0.016883,0.999844
15527,4513583,-0.011147,0.070327,9.79898,-0.004147,0.001485,-0.000605,,,,-0.000028,0.000176,0.024497,1,-0.000005,0.000002,-0.000001,,0.999961,0.008438,-0.002591,-0.000889,0.967194,-0.295994,-0.104353,0.999985,-0.001821,0.005166,0.001734,0.999856,0.01688,-0.005196,-0.01687,0.999844
15528,4513608,0.040796,0.212166,9.777617,0.000859,-0.002034,0.001811,-0.222576,-0.353648,0.398968,0.000102,0.00053,0.024444,1,0.000001,-0.000003,0.000002,100632,0.999961,0.008438,-0.002593,-0.000887,0.967208,-0.296283,-0.104143,0.999985,-0.001818,0.005171,0.00173,0.999856,0.01688,-0.005201,-0.016871,0.999844
15529,4513633,0.05806,0.164913,9.821725,-0.000049,-0.002196,-0.002718,,,,0.000145,0.000412,0.024554,1,0,-0.000003,-0.000003,,0.999961,0.008437,-0.002596,-0.000891,0.967095,-0.296585,-0.104583,0.999985,-0.001825,0.005176,0.001738,0.999856,0.016878,-0.005206,-0.016869,0.999844
15530,4513658,0.033073,0.150511,9.80048,0.003802,0.000785,0.000573,,,,0.000083,0.000376,0.024501,1,0.000005,0.000001,0.000001,,0.999961,0.008441,-0.002594,-0.00089,0.967525,-0.296435,-0.104519,0.999985,-0.001824,0.005174,0.001737,0.999856,0.016885,-0.005204,-0.016876,0.999844
15531,4513683,0.107993,0.21067,9.799792,-0.002803,-0.002502,-0.00077,,,,0.00027,0.000527,0.024499,1,-0.000004,-0.000003,-0.000001,,0.999961,0.008436,-0.002598,-0.000892,0.967016,-0.296786,-0.104681,0.999985,-0.001827,0.00518,0.001739,0.999856,0.016877,-0.00521,-0.016867,0.999844
15532,4513708,-0.083745,0.189332,9.858609,-0.001758,0.002351,-0.003709,-0.22307,-0.35216,0.400441,-0.000209,0.000473,0.024647,1,-0.000002,0.000003,-0.000005,100633,0.999961,0.008433,-0.002595,-0.000897,0.966659,-0.296434,-0.105251,0.999985,-0.001837,0.005174,0.001749,0.999856,0.01687,-0.005204,-0.016861,0.999844
15533,4513733,0.02814,0.180406,9.757497,-0.004146,-0.001261,-0.000316,,,,0.00007,0.000451,0.024394,1,-0.000005,-0.000002,0,,0.999961,0.008427,-0.002596,-0.000897,0.965957,-0.296608,-0.105345,0.999985,-0.001839,0.005177,0.001751,0.999856,0.016858,-0.005207,-0.016849,0.999844
15534,4513758,0.025,0.179397,9.808111,-0.001487,-0.000529,0.001708,,,,0.000062,0.000449,0.02452,1,-0.000002,-0.000001,0.000002,,0.999961,0.008424,-0.002596,-0.000896,0.965628,-0.296649,-0.105213,0.999985,-0.001836,0.005177,0.001749,0.999856,0.016852,-0.005208,-0.016843,0.999845
15535,4513783,0.070155,0.161658,9.812119,-0.003454,0.003403,0.000035,,,,0.000176,0.000404,0.02453,1,-0.000004,0.000004,0,,0.999961,0.008419,-0.002592,-0.000897,0.965025,-0.296155,-0.105245,0.999985,-0.001837,0.005169,0.00175,0.999857,0.016842,-0.005199,-0.016833,0.999845
15536,4513808,-0.161501,0.187196,9.784673,0.003398,0.000884,0.004073,-0.222571,-0.353644,0.400948,-0.000404,0.000468,0.024462,1,0.000004,0.000001,0.000005,100632,0.999961,0.008422,-0.002591,-0.000892,0.965401,-0.296033,-0.104704,0.999985,-0.001827,0.005167,0.00174,0.999857,0.016848,-0.005197,-0.016839,0.999845
15537,4513833,0.237398,0.165631,9.769609,-0.004886,0.001734,-0.002512,,,,0.000594,0.000414,0.024424,1,-0.000006,0.000002,-0.000003,,0.999961,0.008415,-0.002589,-0.000895,0.964595,-0.295772,-0.105105,0.999985,-0.001834,0.005162,0.001747,0.999857,0.016834,-0.005192,-0.016825,0.999845
15538,4513858,-0.136479,0.140652,9.827422,0.002294,-0.000656,-0.000125,,,,-0.000341,0.000351,0.024569,1,0.000003,-0.000001,0,,0.999961,0.008417,-0.002589,-0.000896,0.964809,-0.295828,-0.105192,0.999985,-0.001836,0.005163,0.001749,0.999857,0.016838,-0.005193,-0.016829,0.999845
15539,4513883,0.192351,0.126775,9.767415,-0.000679,0.003115,-0.000972,,,,0.000481,0.000317,0.024419,1,-0.000001,0.000004,-0.000001,,0.999961,0.008415,-0.002585,-0.000898,0.964604,-0.295373,-0.105369,0.999985,-0.001839,0.005155,0.001752,0.999857,0.016834,-0.005185,-0.016825,0.999845
15540,4513908,-0.12616,0.182404,9.827873,0.00635,-0.001404,0.001652,-0.224028,-0.352651,0.399444,-0.000315,0.000456,0.02457,1,0.000008,-0.000002,0.000002,100634,0.999961,0.008422,-0.002587,-0.000896,0.965404,-0.295572,-0.105181,0.999985,-0.001836,0.005159,0.001749,0.999857,0.016848,-0.005189,-0.016839,0.999845
15541,4513933,-0.00683,0.122878,9.799147,-0.002082,-0.001474,0.000938,,,,-0.000017,0.000307,0.024498,1,-0.000003,-0.000002,0.000001,,0.999961,0.008419,-0.002589,-0.000895,0.964997,-0.29578,-0.105095,0.999985,-0.001834,0.005162,0.001747,0.999857,0.016841,-0.005192,-0.016832,0.999845
15542,4513958,0.209705,0.135237,9.772919,0.003134,-0.000675,-0.00127,,,,0.000524,0.000338,0.024432,1,0.000004,-0.000001,-0.000002,,0.999961,0.008422,-0.002589,-0.000898,0.965333,-0.295834,-0.10535,0.999985,-0.001839,0.005163,0.001751,0.999857,0.016847,-0.005193,-0.016838,0.999845
15543,4513983,0.000938,0.145769,9.815359,-0.001951,-0.002274,0.000859,,,,0.000002,0.000365,0.024538,1,-0.000002,-0.000003,0.000001,,0.999961,0.008418,-0.002592,-0.000897,0.964945,-0.296156,-0.105277,0.999985,-0.001837,0.005169,0.00175,0.999857,0.01684,-0.005199,-0.016831,0.999845
15544,4514008,0.017642,0.150481,9.776899,0.007426,-0.000949,-0.000881,-0.222559,-0.354632,0.400952,0.000044,0.000376,0.024442,1,0.000009,-0.000001,-0.000001,100634,0.999961,0.008427,-0.002593,-0.000898,0.965901,-0.296284,-0.105451,0.999985,-0.00184,0.005171,0.001753,0.999857,0.016857,-0.005201,-0.016848,0.999845
15545,4514033,0.00274,0.160085,9.825134,-0.001523,0.003933,-0.00024,,,,0.000007,0.0004,0.024563,1,-0.000002,0.000005,0,,0.999961,0.008424,-0.002588,-0.000899,0.965575,-0.295714,-0.105521,0.999985,-0.001842,0.005161,0.001754,0.999857,0.016851,-0.005191,-0.016842,0.999845
15546,4514058,0.118046,0.183165,9.788297,0.003432,-0.002129,0.00077,,,,0.000295,0.000458,0.024471,1,0.000004,-0.000003,0.000001,,0.999961,0.008427,-0.002591,-0.000899,0.965952,-0.295981,-0.105503,0.999985,-0.001841,0.005166,0.001754,0.999856,0.016858,-0.005196,-0.016849,0.999845
15547,4514083,-0.033628,0.149049,9.799288,0.003477,0.00631,0.00264,,,,-0.000084,0.000372,0.024498,1,0.000004,0.000008,0.000003,,0.999961,0.00843,-0.002583,-0.000896,0.96634,-0.295078,-0.105155,0.999985,-0.001835,0.00515,0.001748,0.999856,0.016865,-0.00518,-0.016856,0.999845
15548,4514108,0.039126,0.229309,9.792066,0.000881,-0.002059,-0.002076,-0.223549,-0.352654,0.398954,0.000098,0.000573,0.02448,1,0.000001,-0.000003,-0.000003,100639,0.999961,0.008431,-0.002585,-0.000899,0.966359,-0.295362,-0.105502,0.999985,-0.001841,0.005155,0.001754,0.999856,0.016865,-0.005185,-0.016856,0.999844
15549,4514133,-0.088855,0.128048,9.799026,0.004608,-0.000198,-0.002709,,,,-0.000222,0.00032,0.024498,1,0.000006,0,-0.000003,,0.999961,0.008435,-0.002585,-0.000903,0.966913,-0.295378,-0.105936,0.999985,-0.001849,0.005155,0.001762,0.999856,0.016875,-0.005186,-0.016865,0.999844
15550,4514158,0.099768,0.231542,9.822488,-0.000411,0.000415,-0.000426,,,,0.000249,0.000579,0.024556,1,-0.000001,0.000001,-0.000001,,0.999961,0.008434,-0.002585,-0.000904,0.966741,-0.295279,-0.106122,0.999985,-0.001852,0.005154,0.001765,0.999856,0.016872,-0.005184,-0.016862,0.999844
15551,4514183,-0.027019,0.135438,9.797287,-0.001296,0.003196,0.000853,,,,-0.000067,0.000339,0.024493,1,-0.000002,0.000004,0.000001,,0.999961,0.008431,-0.00258,-0.000904,0.966447,-0.294817,-0.106037,0.999985,-0.001851,0.005146,0.001764,0.999856,0.016867,-0.005176,-0.016857,0.999845
15552,4514208,-0.030055,0.216724,9.794474,0.001007,-0.000323,0.003765,-0.224473,-0.355611,0.399948,-0.000075,0.000542,0.024486,1,0.000001,0,0.000005,100632,0.999961,0.008432,-0.002581,-0.000899,0.96648,-0.294866,-0.105543,0.999985,-0.001842,0.005146,0.001755,0.999856,0.016867,-0.005177,-0.016858,0.999844
15553,4514233,0.006868,0.145144,9.817743,-0.000212,-0.000104,-0.002129,,,,0.000017,0.000363,0.024544,1,0,0,-0.000003,,0.999961,0.00843,-0.002581,-0.000902,0.966343,-0.29487,-0.105894,0.999985,-0.001848,0.005146,0.001761,0.999856,0.016865,-0.005177,-0.016856,0.999845
15554,4514258,0.098382,0.224845,9.828808,-0.002229,0.002512,0.001246,,,,0.000246,0.000562,0.024572,1,-0.000003,0.000003,0.000002,,0.999961,0.008427,-0.002577,-0.000902,0.965908,-0.294475,-0.105814,0.999985,-0.001847,0.00514,0.00176,0.999857,0.016857,-0.00517,-0.016848,0.999845
15555,4514283,0.021996,0.128905,9.786391,-0.001313,-0.00352,-0.000943,,,,0.000055,0.000322,0.024466,1,-0.000002,-0.000004,-0.000001,,0.999961,0.008424,-0.002582,-0.000903,0.965613,-0.294971,-0.106003,0.999985,-0.00185,0.005148,0.001763,0.999857,0.016852,-0.005179,-0.016843,0.999845
15556,4514308,0.027278,0.127783,9.788821,0.003513,0.004765,0.001959,-0.221643,-0.350685,0.400943,0.000068,0.000319,0.024472,1,0.000004,0.000006,0.000002,100634,0.999961,0.008427,-0.002576,-0.000901,0.966006,-0.294287,-0.105756,0.999985,-0.001846,0.005136,0.001759,0.999856,0.016859,-0.005167,-0.01685,0.999845
15557,4514333,-0.021868,0.198502,9.840417,-0.000226,0.001127,-0.001661,,,,-0.000055,0.000496,0.024601,1,0,0.000001,-0.000002,,0.999961,0.008426,-0.002574,-0.000904,0.965867,-0.294116,-0.106036,0.999985,-0.001851,0.005133,0.001764,0.999856,0.016857,-0.005164,-0.016847,0.999845
15558,4514358,0.111802,0.11365,9.787271,0.001772,-0.003244,-0.000232,,,,0.000279,0.000284,0.024468,1,0.000002,-0.000004,0,,0.999961,0.008427,-0.002578,-0.000904,0.966007,-0.294541,-0.106115,0.999985,-0.001852,0.005141,0.001765,0.999856,0.016859,-0.005171,-0.01685,0.999845
15559,4514383,-0.026616,0.130057,9.8222,0.002892,0.004221,0.00057,,,,-0.000066,0.000325,0.024556,1,0.000004,0.000005,0.000001,,0.999961,0.00843,-0.002573,-0.000904,0.966312,-0.293932,-0.106068,0.999985,-0.001851,0.00513,0.001764,0.999856,0.016864,-0.005161,-0.016855,0.999845
15560,4514408,0.156727,0.245461,9.790303,-0.003543,-0.000617,-0.00051,-0.221642,-0.351182,0.39946,0.000392,0.000614,0.024476,1,-0.000004,-0.000001,-0.000001,100638,0.999961,0.008425,-0.002573,-0.000905,0.965697,-0.294013,-0.106187,0.999985,-0.001853,0.005131,0.001767,0.999857,0.016854,-0.005162,-0.016844,0.999845
15561,4514433,-0.056359,0.010078,9.786797,0.001638,0.002814,0.002205,,,,-0.000141,0.000025,0.024467,1,0.000002,0.000004,0.000003,,0.999961,0.008426,-0.00257,-0.000903,0.965822,-0.293609,-0.10591,0.999985,-0.001848,0.005124,0.001762,0.999857,0.016856,-0.005155,-0.016846,0.999845
15562,4514458,0.049791,0.317574,9.800578,-0.000958,-0.002387,-0.001895,,,,0.000124,0.000794,0.024501,1,-0.000001,-0.000003,-0.000002,,0.999961,0.008424,-0.002573,-0.000907,0.965572,-0.293907,-0.106364,0.999985,-0.001856,0.00513,0.00177,0.999857,0.016851,-0.00516,-0.016842,0.999845
15563,4514483,0.030801,-0.011302,9.78229,0.004817,0.00011,-0.003634,,,,0.000077,-0.000029,0.024456,1,0.000006,0,-0.000005,,0.999961,0.008429,-0.002572,-0.000911,0.966157,-0.293876,-0.106929,0.999985,-0.001866,0.005129,0.00178,0.999856,0.016862,-0.00516,-0.016852,0.999845
15564,4514508,-0.032261,0.303512,9.84602,0.000229,0.002041,-0.000383,-0.221159,-0.351183,0.39996,-0.000081,0.000759,0.024615,1,0,0.000003,0,100635,0.999961,0.008428,-0.00257,-0.000912,0.966082,-0.293577,-0.107024,0.999985,-0.001868,0.005124,0.001781,0.999856,0.01686,-0.005155,-0.016851,0.999845
15565,4514533,0.047473,0.043203,9.774041,0.000063,0.000822,0.002281,,,,0.000119,0.000108,0.024435,1,0,0.000001,0.000003,,0.999961,0.008427,-0.002569,-0.00091,0.965981,-0.293459,-0.106741,0.999985,-0.001863,0.005122,0.001776,0.999856,0.016859,-0.005152,-0.016849,0.999845
15566,4514558,-0.019128,0.268132,9.816216,0.003193,0.000312,0.001169,,,,-0.000048,0.00067,0.024541,1,0.000004,0,0.000001,,0.999961,0.00843,-0.002568,-0.000909,0.966323,-0.293377,-0.106674,0.999985,-0.001862,0.00512,0.001775,0.999856,0.016865,-0.005151,-0.016855,0.999845
15567,4514583,0.037955,0.157292,9.792613,0.001288,-0.002851,0.000685,,,,0.000095,0.000393,0.024482,1,0.000002,-0.000004,0.000001,,0.999961,0.008431,-0.002571,-0.000909,0.966399,-0.293781,-0.106628,0.999985,-0.001861,0.005127,0.001774,0.999856,0.016866,-0.005158,-0.016856,0.999845
15568,4514608,-0.066787,0.154067,9.820242,0.008795,0.005094,-0.000444,-0.222083,-0.354139,0.401449,-0.000167,0.000385,0.024551,1,0.000011,0.000006,-0.000001,100635,0.999961,0.008441,-0.002565,-0.00091,0.967551,-0.293045,-0.106724,0.999985,-0.001863,0.005115,0.001776,0.999856,0.016886,-0.005145,-0.016877,0.999845
15569,4514633,0.197534,0.23774,9.759902,-0.003389,-0.005056,0.000636,,,,0.000494,0.000595,0.0244,1,-0.000004,-0.000006,0.000001,,0.999961,0.008436,-0.002571,-0.000909,0.966957,-0.293764,-0.106691,0.999985,-0.001862,0.005127,0.001775,0.999856,0.016876,-0.005158,-0.016866,0.999845
15570,4514658,-0.257278,0.0519,9.822226,0.002763,0.000038,-0.000463,,,,-0.000643,0.00013,0.024556,1,0.000003,0,-0.000001,,0.999961,0.008438,-0.002571,-0.000911,0.967239,-0.293718,-0.106869,0.999985,-0.001865,0.005126,0.001778,0.999856,0.01688,-0.005157,-0.016871,0.999845
15571,4514683,0.289128,0.375771,9.795598,-0.003968,-0.000949,-0.001262,,,,0.000723,0.00094,0.024489,1,-0.000005,-0.000001,-0.000002,,0.999961,0.008432,-0.002572,-0.000913,0.966563,-0.293845,-0.107097,0.999985,-0.001869,0.005129,0.001782,0.999856,0.016869,-0.005159,-0.016859,0.999845
15572,4514708,-0.107743,-0.077094,9.804202,0.005307,0.001044,-0.000374,-0.222555,-0.355127,0.40046,-0.000269,-0.000193,0.024511,1,0.000007,0.000001,0,100638,0.999961,0.008438,-0.002571,-0.000914,0.967216,-0.293688,-0.107193,0.999985,-0.001871,0.005126,0.001784,0.999856,0.01688,-0.005157,-0.016871,0.999845
15573,4514710,,,,,,,,,,,,,,,,,,,,,,,,,,,,,,,,,
15574,4514733,0.170154,0.430947,9.826541,-0.001703,-0.003603,0.001826,,,,0.000425,0.001077,0.024566,1,-0.000002,-0.000005,0.000002,,0.999961,0.008435,-0.002575,-0.000912,0.966862,-0.294203,-0.106985,0.999985,-0.001867,0.005135,0.00178,0.999856,0.016874,-0.005166,-0.016865,0.999845
15575,4514758,-0.144435,-0.08044,9.78179,0.005964,0.002996,-0.001235,,,,-0.000361,-0.000201,0.024454,1,0.000007,0.000004,-0.000002,,0.999961,0.008441,-0.002571,-0.000914,0.967604,-0.293731,-0.10725,0.999985,-0.001872,0.005127,0.001785,0.999856,0.016887,-0.005157,-0.016877,0.999844
15576,4514783,0.274921,0.321989,9.826181,-0.000766,-0.002898,0.001071,,,,0.000687,0.000805,0.024565,1,-0.000001,-0.000004,0.000001,,0.999961,0.008439,-0.002575,-0.000913,0.967385,-0.294142,-0.107149,0.999985,-0.00187,0.005134,0.001783,0.999856,0.016883,-0.005165,-0.016874,0.999844
15577,4514808,-0.186354,0.047732,9.789038,0.004888,-0.00072,0.000791,-0.220645,-0.35415,0.399978,-0.000466,0.000119,0.024473,1,0.000006,-0.000001,0.000001,100634,0.999961,0.008445,-0.002576,-0.000913,0.967976,-0.294241,-0.107083,0.999985,-0.001869,0.005135,0.001782,0.999856,0.016893,-0.005166,-0.016884,0.999844
15578,4514833,0.26506,0.251397,9.797985,-0.006551,0.003403,-0.003247,,,,0.000663,0.000629,0.024495,1,-0.000008,0.000004,-0.000004,,0.999961,0.008436,-0.002571,-0.000917,0.966932,-0.29374,-0.107585,0.999985,-0.001878,0.005127,0.001791,0.999856,0.016875,-0.005158,-0.016866,0.999844
15579,4514858,-0.195811,0.036998,9.804871,0.006554,-0.004931,0.00321,,,,-0.00049,0.000092,0.024512,1,0.000008,-0.000006,0.000004,,0.999961,0.008443,-0.002577,-0.000914,0.967755,-0.294414,-0.107273,0.999985,-0.001872,0.005138,0.001785,0.999856,0.016889,-0.005169,-0.01688,0.999844
15580,4514883,0.018619,0.219596,9.764913,-0.004368,0.0011,0.00233,,,,0.000047,0.000549,0.024412,1,-0.000005,0.000001,0.000003,,0.999961,0.008436,-0.002576,-0.000912,0.967019,-0.294256,-0.106981,0.999985,-0.001867,0.005136,0.00178,0.999856,0.016877,-0.005166,-0.016867,0.999844
15581,4514908,0.118297,0.15072,9.798669,0.001622,-0.000715,-0.000206,-0.222561,-0.355132,0.397985,0.000296,0.000377,0.024497,1,0.000002,-0.000001,0,100634,0.999961,0.008437,-0.002576,-0.000913,0.967143,-0.294352,-0.107058,0.999985,-0.001868,0.005137,0.001782,0.999856,0.016879,-0.005168,-0.016869,0.999844
15582,4514933,-0.024879,0.186279,9.826541,-0.00086,-0.000423,0.004228,,,,-0.000062,0.000466,0.024566,1,-0.000001,-0.000001,0.000005,,0.999961,0.008435,-0.002577,-0.000908,0.966909,-0.294417,-0.106498,0.999985,-0.001859,0.005139,0.001772,0.999856,0.016875,-0.005169,-0.016865,0.999844
15583,4514958,-0.022485,0.090466,9.77261,0.002349,0.003961,-0.001535,,,,-0.000056,0.000226,0.024432,1,0.000003,0.000005,-0.000002,,0.999961,0.008437,-0.002572,-0.00091,0.967133,-0.293806,-0.106814,0.999985,-0.001864,0.005128,0.001777,0.999856,0.016879,-0.005159,-0.016869,0.999844
15584,4514983,0.145985,0.256775,9.78186,-0.001058,-0.002986,-0.000733,,,,0.000365,0.000642,0.024455,1,-0.000001,-0.000004,-0.000001,,0.999961,0.008435,-0.002575,-0.000912,0.966874,-0.294226,-0.106971,0.999985,-0.001867,0.005135,0.00178,0.999856,0.016874,-0.005166,-0.016865,0.999844
15585,4515008,-0.190927,0.113708,9.844159,0.002166,0.001032,0.001123,-0.223043,-0.354133,0.401935,-0.000477,0.000284,0.02461,1,0.000003,0.000001,0.000001,100636,0.999961,0.008437,-0.002574,-0.000911,0.967075,-0.294075,-0.106853,0.999985,-0.001865,0.005133,0.001778,0.999856,0.016878,-0.005163,-0.016868,0.999844
15586,4515033,0.261407,0.218814,9.771421,-0.003205,0.002729,0.000209,,,,0.000654,0.000547,0.024429,1,-0.000004,0.000003,0,,0.999961,0.008432,-0.002571,-0.000911,0.966507,-0.293679,-0.106861,0.999985,-0.001865,0.005126,0.001778,0.999856,0.016868,-0.005156,-0.016858,0.999845
15587,4515058,-0.12089,0.09439,9.816764,0.003869,0.001473,0.002468,,,,-0.000302,0.000236,0.024542,1,0.000005,0.000002,0.000003,,0.999961,0.008436,-0.002568,-0.000909,0.966946,-0.293434,-0.106623,0.999985,-0.001861,0.005121,0.001774,0.999856,0.016875,-0.005152,-0.016866,0.999845
15588,4515083,-0.01828,0.246696,9.801414,-0.002746,-0.002211,0.001074,,,,-0.000046,0.000617,0.024504,1,-0.000003,-0.000003,0.000001,,0.999961,0.008431,-0.002571,-0.000908,0.966444,-0.293748,-0.10652,0.999985,-0.001859,0.005127,0.001772,0.999856,0.016867,-0.005157,-0.016857,0.999845
15589,4515108,0.2299,0.116664,9.770749,0.003185,-0.000693,0.000668,-0.222121,-0.351178,0.399951,0.000575,0.000291,0.024427,1,0.000004,-0.000001,0.000001,100640,0.999961,0.008434,-0.002572,-0.000907,0.966791,-0.293843,-0.106471,0.999985,-0.001858,0.005128,0.001771,0.999856,0.016873,-0.005159,-0.016863,0.999845
15590,4515133,-0.149699,0.216724,9.833741,0.000041,0.001781,0.000987,,,,-0.000374,0.000542,0.024584,1,0,0.000002,0.000001,,0.999961,0.008433,-0.00257,-0.000907,0.966689,-0.293584,-0.10637,0.999985,-0.001856,0.005124,0.00177,0.999856,0.016871,-0.005155,-0.016862,0.999845
15591,4515158,0.194712,0.094491,9.78503,-0.000721,-0.003721,0.001282,,,,0.000487,0.000236,0.024463,1,-0.000001,-0.000005,0.000002,,0.999961,0.008432,-0.002574,-0.000906,0.966471,-0.29408,-0.106304,0.999985,-0.001855,0.005133,0.001769,0.999856,0.016867,-0.005163,-0.016858,0.999845
15592,4515183,-0.117782,0.315077,9.8258,0.002209,-0.001784,0.000892,,,,-0.000295,0.000788,0.024565,1,0.000003,-0.000002,0.000001,,0.999961,0.008433,-0.002576,-0.000905,0.966679,-0.294332,-0.106226,0.999985,-0.001854,0.005137,0.001767,0.999856,0.016871,-0.005168,-0.016861,0.999845
15593,4515208,0.082296,0.012702,9.776354,-0.003196,0.000257,-0.004028,-0.223044,-0.354134,0.40144,0.000206,0.000032,0.024441,1,-0.000004,0,-0.000005,100638,0.999961,0.008428,-0.002576,-0.000911,0.966115,-0.294279,-0.106847,0.999985,-0.001865,0.005136,0.001778,0.999856,0.016861,-0.005167,-0.016851,0.999845
15594,4515233,-0.011122,0.285785,9.840677,0.001653,-0.001451,0.000123,,,,-0.000028,0.000714,0.024602,1,0.000002,-0.000002,0,,0.999961,0.00843,-0.002578,-0.000911,0.966244,-0.294481,-0.106878,0.999985,-0.001865,0.00514,0.001778,0.999856,0.016863,-0.00517,-0.016854,0.999845
15595,4515258,0.123994,0.120444,9.796837,-0.006978,0.003246,0.002751,,,,0.00031,0.000302,0.024492,1,-0.000009,0.000004,0.000003,,0.999961,0.00842,-0.002573,-0.000908,0.965128,-0.293982,-0.10654,0.999985,-0.001859,0.005131,0.001773,0.999857,0.016844,-0.005162,-0.016834,0.999845
15596,4515283,-0.081915,0.171104,9.778355,0.00548,-0.006108,-0.000533,,,,-0.000205,0.000427,0.024446,1,0.000007,-0.000008,-0.000001,,0.999961,0.008426,-0.002581,-0.000909,0.965805,-0.29485,-0.106676,0.999985,-0.001862,0.005146,0.001775,0.999856,0.016855,-0.005177,-0.016846,0.999845
15597,4515308,-0.015164,0.104769,9.785201,-0.003585,-0.000961,-0.000244,-0.223048,-0.354137,0.399955,-0.000038,0.000262,0.024463,1,-0.000004,-0.000001,0,100636,0.999961,0.00842,-0.002582,-0.00091,0.965184,-0.294981,-0.106759,0.999985,-0.001863,0.005148,0.001776,0.999857,0.016845,-0.005179,-0.016835,0.999845
15598,4515333,0.117745,0.182876,9.801958,0.001321,-0.002544,-0.001308,,,,0.000294,0.000457,0.024505,1,0.000002,-0.000003,-0.000002,,0.999961,0.008421,-0.002585,-0.000912,0.965259,-0.295302,-0.107054,0.999985,-0.001868,0.005154,0.001781,0.999857,0.016846,-0.005185,-0.016837,0.999845
15599,4515358,0.025416,0.105684,9.813093,0.002617,-0.00196,0.000571,,,,0.000063,0.000264,0.024533,1,0.000003,-0.000002,0.000001,,0.999961,0.008423,-0.002587,-0.000912,0.965526,-0.295578,-0.107022,0.999985,-0.001868,0.005159,0.001781,0.999857,0.016851,-0.00519,-0.016841,0.999845
15600,4515383,0.010841,0.274733,9.806083,0.003063,0.002196,-0.000735,,,,0.000027,0.000687,0.024515,1,0.000004,0.000003,-0.000001,,0.999961,0.008426,-0.002584,-0.000913,0.965857,-0.295256,-0.107167,0.999985,-0.00187,0.005153,0.001783,0.999857,0.016856,-0.005184,-0.016847,0.999845
15601,4515408,-0.089185,0.069983,9.77459,0.001257,-0.001267,0.000403,-0.222579,-0.353152,0.399956,-0.000223,0.000175,0.024436,1,0.000002,-0.000002,0.000001,100637,0.999961,0.008427,-0.002586,-0.000913,0.965929,-0.295433,-0.107157,0.999985,-0.00187,0.005156,0.001783,0.999857,0.016858,-0.005187,-0.016848,0.999845
15602,4515433,0.141429,0.178368,9.813644,0.000266,0.005872,-0.000277,,,,0.000354,0.000446,0.024534,1,0,0.000007,0,,0.999961,0.008426,-0.002579,-0.000914,0.965859,-0.294585,-0.107228,0.999985,-0.001871,0.005141,0.001785,0.999856,0.016856,-0.005172,-0.016847,0.999845
15603,4515458,0.024216,0.236951,9.805967,-0.001502,0.003257,0.001592,,,,0.000061,0.000592,0.024515,1,-0.000002,0.000004,0.000002,,0.999961,0.008423,-0.002574,-0.000914,0.965528,-0.294082,-0.107166,0.999985,-0.00187,0.005133,0.001784,0.999856,0.016851,-0.005163,-0.016841,0.999845
15604,4515483,-0.014611,0.103373,9.794353,0.004653,0.003747,0.003601,,,,-0.000036,0.000258,0.024486,1,0.000006,0.000005,0.000005,,0.999961,0.008428,-0.002569,-0.000909,0.966084,-0.293548,-0.106686,0.999985,-0.001862,0.005123,0.001775,0.999856,0.01686,-0.005154,-0.016851,0.999845
15605,4515508,0.073746,0.26508,9.82213,-0.000685,-0.003938,0.002975,-0.22353,-0.354135,0.399456,0.000184,0.000663,0.024555,1,-0.000001,-0.000005,0.000004,100637,0.999961,0.008426,-0.002574,-0.000906,0.965876,-0.294113,-0.106314,0.999985,-0.001856,0.005133,0.001769,0.999856,0.016857,-0.005164,-0.016847,0.999845
15606,4515533,-0.057316,0.034858,9.786057,-0.000907,0.000017,-0.002855,,,,-0.000143,0.000087,0.024465,1,-0.000001,0,-0.000004,,0.999961,0.008424,-0.002574,-0.00091,0.96564,-0.294098,-0.106768,0.999985,-0.001863,0.005133,0.001777,0.999856,0.016853,-0.005164,-0.016843,0.999845
15607,4515558,0.187349,0.321458,9.814642,-0.000085,-0.00487,-0.000951,,,,0.000468,0.000804,0.024537,1,0,-0.000006,-0.000001,,0.999961,0.008423,-0.00258,-0.000912,0.965514,-0.294752,-0.107001,0.999985,-0.001867,0.005144,0.001781,0.999856,0.01685,-0.005175,-0.016841,0.999845
15608,4515583,-0.161611,0.069341,9.813857,0.00423,-0.001483,0.000045,,,,-0.000404,0.000173,0.024535,1,0.000005,-0.000002,0,,0.999961,0.008428,-0.002582,-0.000912,0.966012,-0.294959,-0.107043,0.999985,-0.001868,0.005148,0.001781,0.999856,0.016859,-0.005179,-0.01685,0.999845
15609,4515608,0.120314,0.240417,9.798886,-0.001162,0.002598,0.000373,-0.222087,-0.353644,0.401942,0.000301,0.000601,0.024497,1,-0.000001,0.000003,0,100635,0.999961,0.008425,-0.002578,-0.000912,0.965737,-0.294581,-0.107028,0.999985,-0.001868,0.005141,0.001781,0.999856,0.016854,-0.005172,-0.016845,0.999845
15610,4515633,0.041745,0.145561,9.78422,0.003193,-0.004824,-0.001264,,,,0.000104,0.000364,0.024461,1,0.000004,-0.000006,-0.000002,,0.999961,0.008428,-0.002584,-0.000914,0.966087,-0.295263,-0.107266,0.999985,-0.001872,0.005153,0.001785,0.999856,0.01686,-0.005184,-0.016851,0.999845
15611,4515658,-0.061744,0.139121,9.831429,-0.001791,0.001686,0.000387,,,,-0.000154,0.000348,0.024579,1,-0.000002,0.000002,0,,0.999961,0.008425,-0.002582,-0.000915,0.965716,-0.294982,-0.107376,0.999985,-0.001874,0.005148,0.001787,0.999856,0.016854,-0.005179,-0.016844,0.999845
15612,4515683,0.198038,0.211091,9.771872,0.001778,0.001652,0.000409,,,,0.000495,0.000528,0.02443,1,0.000002,0.000002,0.000001,,0.999961,0.008426,-0.00258,-0.000915,0.965862,-0.294741,-0.107359,0.999985,-0.001874,0.005144,0.001787,0.999856,0.016856,-0.005175,-0.016847,0.999845
15613,4515708,-0.213577,0.123313,9.798098,0.000126,0.00005,-0.001132,-0.224505,-0.352645,0.400924,-0.000534,0.000308,0.024495,1,0,0,-0.000001,100635,0.999961,0.008425,-0.00258,-0.000917,0.965773,-0.294725,-0.107566,0.999985,-0.001877,0.005144,0.00179,0.999856,0.016855,-0.005175,-0.016845,0.999845
15614,4515733,0.26204,0.192135,9.788134,-0.00125,0.0012,0.000397,,,,0.000655,0.00048,0.02447,1,-0.000002,0.000002,0,,0.999961,0.008423,-0.002578,-0.000917,0.965486,-0.294548,-0.107551,0.999985,-0.001877,0.005141,0.00179,0.999856,0.01685,-0.005172,-0.01684,0.999845
15615,4515758,-0.13254,0.130657,9.848881,-0.001749,0.001086,-0.001834,,,,-0.000331,0.000327,0.024622,1,-0.000002,0.000001,-0.000002,,0.999961,0.00842,-0.002577,-0.00092,0.965123,-0.294348,-0.107944,0.999985,-0.001884,0.005137,0.001797,0.999856,0.016844,-0.005168,-0.016834,0.999845
15616,4515783,0.164149,0.182932,9.773875,-0.002229,-0.000882,0.000199,,,,0.00041,0.000457,0.024435,1,-0.000003,-0.000001,0,,0.999961,0.008416,-0.002578,-0.00092,0.964695,-0.294469,-0.107963,0.999985,-0.001884,0.005139,0.001798,0.999857,0.016836,-0.00517,-0.016827,0.999845
15617,4515808,-0.213604,0.115433,9.800552,0.002538,0.001145,-0.000514,-0.224493,-0.353633,0.400929,-0.000534,0.000288,0.024501,1,0.000003,0.000001,-0.000001,100636,0.999961,0.008418,-0.002576,-0.000922,0.964951,-0.294298,-0.108079,0.999985,-0.001886,0.005136,0.0018,0.999857,0.016841,-0.005167,-0.016831,0.999845
15618,4515833,0.255783,0.198503,9.781125,-0.004074,0.002595,-0.00065,,,,0.00064,0.000497,0.024453,1,-0.000005,0.000003,-0.000001,,0.999961,0.008412,-0.002573,-0.000923,0.964259,-0.293919,-0.10821,0.999985,-0.001889,0.00513,0.001802,0.999857,0.016828,-0.005161,-0.016819,0.999845
15619,4515858,-0.046633,0.100961,9.818457,0.004499,0.000904,-0.001398,,,,-0.000117,0.000252,0.024546,1,0.000006,0.000001,-0.000002,,0.999961,0.008417,-0.002571,-0.000925,0.964791,-0.293746,-0.108483,0.999985,-0.001893,0.005127,0.001807,0.999857,0.016838,-0.005158,-0.016828,0.999845
15620,4515883,-0.014482,0.242196,9.799149,-0.002483,0.000418,0.000011,,,,-0.000036,0.000606,0.024498,1,-0.000003,0.000001,0,,0.999961,0.008413,-0.002571,-0.000925,0.964328,-0.29368,-0.108525,0.999985,-0.001894,0.005126,0.001808,0.999857,0.01683,-0.005157,-0.01682,0.999845
15621,4515908,0.064511,0.08301,9.780334,0.001665,-0.002684,0.003978,-0.223519,-0.355123,0.39946,0.000161,0.000207,0.024451,1,0.000002,-0.000003,0.000005,100634,0.999961,0.008414,-0.002574,-0.000921,0.964455,-0.294068,-0.108007,0.999985,-0.001885,0.005132,0.001798,0.999857,0.016832,-0.005163,-0.016822,0.999845
15622,4515933,0.007476,0.232956,9.799221,-0.004961,0.000442,0.000883,,,,0.000019,0.000583,0.024498,1,-0.000006,0.000001,0.000001,,0.999961,0.008407,-0.002573,-0.00092,0.963636,-0.294001,-0.107925,0.999985,-0.001884,0.005131,0.001797,0.999857,0.016818,-0.005162,-0.016808,0.999845
15623,4515958,0.084086,0.066218,9.801055,0.001354,0.004078,0.000264,,,,0.00021,0.000165,0.024503,1,0.000002,0.000005,0,,0.999961,0.008407,-0.002568,-0.000921,0.963716,-0.293377,-0.107955,0.999985,-0.001884,0.00512,0.001798,0.999857,0.016819,-0.005151,-0.01681,0.999845
15624,4515983,-0.079798,0.295535,9.827209,-0.000377,0.002918,0.00185,,,,-0.000199,0.000739,0.024568,1,0,0.000004,0.000002,,0.999961,0.008406,-0.002564,-0.000919,0.963553,-0.292958,-0.107728,0.999985,-0.00188,0.005113,0.001794,0.999857,0.016816,-0.005144,-0.016807,0.999846
15625,4516008,-0.005342,0.067451,9.762454,-0.001855,-0.001906,0.000998,-0.225482,-0.351156,0.401403,-0.000013,0.000169,0.024406,1,-0.000002,-0.000002,0.000001,100634,0.999961,0.008403,-0.002567,-0.000918,0.963178,-0.293227,-0.107635,0.999985,-0.001879,0.005118,0.001792,0.999857,0.01681,-0.005149,-0.0168,0.999846
15626,4516033,0.138877,0.245918,9.807299,0.004438,0.003963,-0.00017,,,,0.000347,0.000615,0.024518,1,0.000006,0.000005,0,,0.999961,0.008407,-0.002562,-0.000918,0.963706,-0.292653,-0.107695,0.999985,-0.00188,0.005108,0.001793,0.999857,0.016819,-0.005139,-0.016809,0.999845
15627,4516058,0.001154,0.161698,9.778406,-0.002833,-0.002347,0.000178,,,,0.000003,0.000404,0.024446,1,-0.000004,-0.000003,0,,0.999961,0.008403,-0.002564,-0.000919,0.963185,-0.292948,-0.10779,0.999985,-0.001881,0.005113,0.001795,0.999857,0.01681,-0.005144,-0.0168,0.999846
15628,4516083,0.039598,0.127713,9.806871,0.00161,0.004023,-0.00094,,,,0.000099,0.000319,0.024517,1,0.000002,0.000005,-0.000001,,0.999961,0.008404,-0.002559,-0.000921,0.963308,-0.292364,-0.10796,0.999985,-0.001884,0.005103,0.001798,0.999857,0.016812,-0.005134,-0.016802,0.999846
15629,4516108,-0.012042,0.290071,9.853127,-0.00343,0.000031,-0.001447,-0.221628,-0.352168,0.400455,-0.00003,0.000725,0.024633,1,-0.000004,0,-0.000002,100644,0.999961,0.008399,-0.002559,-0.000923,0.96271,-0.29235,-0.108212,0.999985,-0.001889,0.005102,0.001803,0.999857,0.016801,-0.005133,-0.016792,0.999846
15630,4516133,0.11124,0.023821,9.753823,0.001083,-0.000712,0.000187,,,,0.000278,0.000059,0.024385,1,0.000001,-0.000001,0,,0.999961,0.008399,-0.00256,-0.000923,0.962757,-0.292447,-0.108232,0.999985,-0.001889,0.005104,0.001803,0.999857,0.016802,-0.005135,-0.016793,0.999846
15631,4516158,0.016433,0.324945,9.828568,-0.000778,-0.003037,0.003489,,,,0.000041,0.000812,0.024571,1,-0.000001,-0.000004,0.000004,,0.999961,0.008397,-0.002563,-0.000919,0.962529,-0.29285,-0.107808,0.999985,-0.001882,0.005111,0.001795,0.999857,0.016798,-0.005142,-0.016789,0.999846
15632,4516183,-0.014436,0.00786,9.773088,0.002602,-0.001462,0.000977,,,,-0.000036,0.000019,0.024433,1,0.000003,-0.000002,0.000001,,0.999961,0.008399,-0.002565,-0.000918,0.962793,-0.293055,-0.107716,0.999985,-0.00188,0.005115,0.001794,0.999857,0.016803,-0.005146,-0.016793,0.999846
15633,4516208,0.105178,0.327999,9.814358,-0.000748,-0.002486,-0.002521,-0.222595,-0.351669,0.400444,0.000263,0.00082,0.024536,1,-0.000001,-0.000003,-0.000003,100632,0.999961,0.008398,-0.002568,-0.000922,0.96258,-0.293399,-0.108129,0.999985,-0.001887,0.005121,0.001801,0.999857,0.016799,-0.005152,-0.01679,0.999846
15634,4516233,-0.003372,-0.022324,9.829617,-0.002255,0.005288,-0.001283,,,,-0.000008,-0.000056,0.024574,1,-0.000003,0.000007,-0.000002,,0.999961,0.008394,-0.002562,-0.000924,0.96215,-0.292633,-0.108345,0.999985,-0.001891,0.005107,0.001805,0.999858,0.016792,-0.005138,-0.016782,0.999846
15635,4516258,0.036544,0.293278,9.785342,-0.000034,-0.001657,0.002683,,,,0.000091,0.000733,0.024463,1,0,-0.000002,0.000003,,0.999961,0.008393,-0.002563,-0.000921,0.962029,-0.292837,-0.108032,0.999985,-0.001885,0.005111,0.001799,0.999858,0.01679,-0.005142,-0.01678,0.999846
15636,4516283,-0.002625,-0.00479,9.773207,0.005949,0.00106,0.000576,,,,-0.000006,-0.000012,0.024433,1,0.000007,0.000001,0.000001,,0.999961,0.008399,-0.002562,-0.000921,0.962773,-0.29268,-0.107992,0.999985,-0.001885,0.005108,0.001799,0.999857,0.016803,-0.005139,-0.016793,0.999846
15637,4516308,0.088836,0.318416,9.852575,0.001293,0.001942,0.002169,-0.22307,-0.351662,0.402419,0.000222,0.000796,0.024631,1,0.000002,0.000002,0.000003,100640,0.999961,0.0084,-0.002559,-0.000919,0.962848,-0.292402,-0.107722,0.999985,-0.00188,0.005103,0.001794,0.999857,0.016804,-0.005134,-0.016794,0.999846
15638,4516333,-0.078608,-0.032584,9.768748,0.001284,0.000063,0.000831,,,,-0.000197,-0.000082,0.024422,1,0.000002,0,0.000001,,0.999961,0.008401,-0.002559,-0.000918,0.962923,-0.292388,-0.107648,0.999985,-0.001879,0.005103,0.001793,0.999857,0.016805,-0.005134,-0.016796,0.999846
15639,4516358,0.153496,0.303788,9.807561,0.001753,0.000935,0.001354,,,,0.000384,0.000759,0.024519,1,0.000002,0.000001,0.000002,,0.999961,0.008402,-0.002558,-0.000918,0.96306,-0.292218,-0.107601,0.999985,-0.001878,0.0051,0.001792,0.999857,0.016808,-0.005131,-0.016798,0.999846
15640,4516383,-0.204051,0.117616,9.838104,0.001106,-0.001417,0.001153,,,,-0.00051,0.000294,0.024595,1,0.000001,-0.000002,0.000001,,0.999961,0.008402,-0.00256,-0.000916,0.963109,-0.292418,-0.107484,0.999985,-0.001876,0.005104,0.00179,0.999857,0.016808,-0.005134,-0.016799,0.999846
15641,4516408,0.26653,0.184416,9.780955,-0.000115,0.000829,-0.002876,-0.223051,-0.353641,0.400943,0.000666,0.000461,0.024452,1,0,0.000001,-0.000004,100638,0.999961,0.008401,-0.002558,-0.00092,0.962987,-0.292286,-0.107939,0.999985,-0.001884,0.005101,0.001798,0.999857,0.016806,-0.005132,-0.016797,0.999846
15642,4516433,-0.170949,0.166962,9.829495,0.005702,-0.000842,0.000057,,,,-0.000427,0.000417,0.024574,1,0.000007,-0.000001,0,,0.999961,0.008407,-0.00256,-0.000921,0.963696,-0.292401,-0.107978,0.999985,-0.001885,0.005103,0.001798,0.999857,0.016819,-0.005134,-0.016809,0.999846
15643,4516458,0.174716,0.122314,9.78513,-0.004639,-0.000101,0.000555,,,,0.000437,0.000306,0.024463,1,-0.000006,0,0.000001,,0.999961,0.008401,-0.002559,-0.000921,0.962917,-0.292376,-0.108032,0.999985,-0.001885,0.005103,0.001799,0.999857,0.016805,-0.005134,-0.016796,0.999846
15644,4516483,-0.000146,0.20122,9.845279,0.003657,0.000059,-0.002724,,,,0,0.000503,0.024613,1,0.000005,0,-0.000003,,0.999961,0.008404,-0.002559,-0.000925,0.963335,-0.292355,-0.108467,0.999985,-0.001893,0.005103,0.001807,0.999857,0.016812,-0.005134,-0.016803,0.999846
15645,4516508,-0.016011,0.167955,9.799314,0.000509,0.00053,0.00082,-0.220169,-0.353658,0.400476,-0.00004,0.00042,0.024498,1,0.000001,0.000001,0.000001,100637,0.999961,0.008404,-0.002558,-0.000924,0.963299,-0.292276,-0.108393,0.999985,-0.001892,0.005101,0.001806,0.999857,0.016812,-0.005132,-0.016802,0.999846
15646,4516533,0.072699,0.154246,9.797189,0.003483,-0.00505,0.003024,,,,0.000181,0.000385,0.024493,1,0.000004,-0.000006,0.000004,,0.999961,0.008407,-0.002565,-0.000921,0.963688,-0.293,-0.108017,0.999985,-0.001885,0.005114,0.001799,0.999857,0.016819,-0.005145,-0.016809,0.999846
15647,4516558,0.129356,0.197956,9.803872,-0.003964,0.00725,0.002312,,,,0.000324,0.000495,0.02451,1,-0.000005,0.000009,0.000003,,0.999961,0.008401,-0.002555,-0.000919,0.963005,-0.291927,-0.107797,0.999985,-0.001881,0.005095,0.001796,0.999857,0.016807,-0.005126,-0.016797,0.999846
15648,4516583,-0.145757,0.137825,9.805942,-0.000192,0.000478,0.000248,,,,-0.000364,0.000345,0.024515,1,0,0.000001,0,,0.999961,0.0084,-0.002555,-0.000919,0.962869,-0.291853,-0.107806,0.999985,-0.001882,0.005094,0.001796,0.999857,0.016804,-0.005125,-0.016795,0.999846
15649,4516608,0.080766,0.190751,9.774804,-0.000364,-0.001611,-0.00421,-0.224018,-0.353142,0.400931,0.000202,0.000477,0.024437,1,0,-0.000002,-0.000005,100634,0.999961,0.008399,-0.002557,-0.000925,0.962712,-0.292068,-0.108458,0.999985,-0.001893,0.005098,0.001807,0.999857,0.016801,-0.005129,-0.016792,0.999846
15650,4516633,0.066529,0.113517,9.798074,-0.000739,0.002532,0.001112,,,,0.000166,0.000284,0.024495,1,-0.000001,0.000003,0.000001,,0.999961,0.008397,-0.002553,-0.000924,0.962497,-0.291702,-0.108337,0.999985,-0.001891,0.005091,0.001805,0.999857,0.016798,-0.005122,-0.016788,0.999846
15651,4516658,-0.10975,0.239424,9.799888,-0.001797,-0.003631,0.000735,,,,-0.000275,0.000599,0.0245,1,-0.000002,-0.000005,0.000001,,0.999961,0.008394,-0.002558,-0.000925,0.962126,-0.292183,-0.108442,0.999985,-0.001893,0.0051,0.001807,0.999858,0.016791,-0.005131,-0.016782,0.999846
15652,4516683,0.204553,0.063604,9.748268,-0.000256,-0.000542,0.000568,,,,0.000511,0.000159,0.024371,1,0,-0.000001,0.000001,,0.999961,0.008392,-0.002558,-0.000925,0.961981,-0.292256,-0.108407,0.999985,-0.001892,0.005101,0.001806,0.999858,0.016789,-0.005132,-0.016779,0.999846
15653,4516708,-0.153547,0.22932,9.851405,0.002288,0.0041,0.000412,-0.220159,-0.354149,0.401963,-0.000384,0.000573,0.024629,1,0.000003,0.000005,0.000001,100636,0.999961,0.008394,-0.002553,-0.000924,0.9622,-0.291664,-0.108383,0.999985,-0.001892,0.00509,0.001806,0.999857,0.016793,-0.005122,-0.016783,0.999846
15654,4516733,0.086127,0.123376,9.769201,-0.002164,-0.000416,-0.000229,,,,0.000215,0.000309,0.024423,1,-0.000003,-0.000001,0,,0.999961,0.008391,-0.002554,-0.000925,0.961782,-0.291717,-0.108462,0.999985,-0.001893,0.005091,0.001807,0.999858,0.016785,-0.005122,-0.016776,0.999846
15655,4516758,-0.00175,0.18153,9.791849,0.001853,-0.003512,-0.000884,,,,-0.000005,0.000454,0.02448,1,0.000002,-0.000004,-0.000001,,0.999961,0.008392,-0.002558,-0.000927,0.961934,-0.292179,-0.108695,0.999985,-0.001897,0.005099,0.001811,0.999858,0.016788,-0.005131,-0.016778,0.999846
15656,4516783,0.146891,0.143602,9.799266,0.000098,0.001896,-0.000869,,,,0.000367,0.000359,0.024498,1,0,0.000002,-0.000001,,0.999961,0.008391,-0.002555,-0.000929,0.961841,-0.291899,-0.10886,0.999985,-0.0019,0.005095,0.001814,0.999858,0.016786,-0.005126,-0.016777,0.999846
15657,4516808,-0.183435,0.173092,9.793735,0.002902,-0.002113,0.00018,-0.22404,-0.351663,0.39944,-0.000459,0.000433,0.024484,1,0.000004,-0.000003,0,100636,0.999961,0.008394,-0.002558,-0.000929,0.962148,-0.292196,-0.108884,0.999985,-0.0019,0.0051,0.001814,0.999858,0.016792,-0.005131,-0.016782,0.999846
15658,4516833,0.186441,0.107673,9.784986,-0.00574,0.00009,-0.000925,,,,0.000466,0.00027,0.024462,1,-0.000007,0,-0.000001,,0.999961,0.008386,-0.002558,-0.00093,0.961219,-0.292175,-0.109062,0.999985,-0.001903,0.005099,0.001818,0.999858,0.016775,-0.005131,-0.016766,0.999846
15659,4516858,-0.099027,0.23306,9.836007,0.001238,-0.003435,-0.001141,,,,-0.000248,0.000583,0.02459,1,0.000002,-0.000004,-0.000001,,0.999961,0.008386,-0.002562,-0.000933,0.961283,-0.292624,-0.109421,0.999985,-0.00191,0.005107,0.001824,0.999858,0.016777,-0.005139,-0.016767,0.999846
15660,4516883,0.125317,0.070395,9.775688,-0.000419,0.006671,-0.000387,,,,0.000314,0.000176,0.024439,1,-0.000001,0.000008,0,,0.999961,0.008385,-0.002553,-0.000934,0.961116,-0.291661,-0.109505,0.999985,-0.001911,0.00509,0.001826,0.999858,0.016774,-0.005122,-0.016764,0.999846
15661,4516908,0.045912,0.289814,9.8407,0.003562,-0.003621,-0.001308,-0.221622,-0.352662,0.400457,0.000115,0.000724,0.024602,1,0.000004,-0.000005,-0.000002,100635,0.999961,0.008388,-0.002558,-0.000936,0.961519,-0.292171,-0.109746,0.999985,-0.001915,0.005099,0.00183,0.999858,0.016781,-0.005131,-0.016771,0.999846
15662,4516933,-0.045228,0.065835,9.80878,-0.005518,0.003874,-0.003289,,,,-0.000113,0.000165,0.024522,1,-0.000007,0.000005,-0.000004,,0.999961,0.00838,-0.002553,-0.000941,0.960623,-0.291602,-0.110253,0.999985,-0.001924,0.005089,0.001839,0.999858,0.016765,-0.005121,-0.016755,0.999847
15663,4516958,0.216297,0.242538,9.778476,0.000723,0.000767,-0.002454,,,,0.000541,0.000606,0.024446,1,0.000001,0.000001,-0.000003,,0.999961,0.00838,-0.002551,-0.000944,0.960614,-0.291444,-0.110667,0.999985,-0.001931,0.005087,0.001846,0.999858,0.016765,-0.005118,-0.016755,0.999847
15664,4516983,-0.181545,0.097975,9.820603,0.003273,-0.000454,-0.000469,,,,-0.000454,0.000245,0.024552,1,0.000004,-0.000001,-0.000001,,0.999961,0.008383,-0.002552,-0.000945,0.960975,-0.291502,-0.11078,0.999985,-0.001933,0.005088,0.001848,0.999858,0.016771,-0.005119,-0.016762,0.999846
15665,4517008,0.237867,0.261747,9.789486,0.004316,-0.003819,-0.001799,-0.223536,-0.353143,0.401431,0.000594,0.000654,0.024474,1,0.000005,-0.000005,-0.000002,100636,0.999961,0.008388,-0.002557,-0.000948,0.961486,-0.292039,-0.111092,0.999985,-0.001939,0.005097,0.001853,0.999858,0.01678,-0.005129,-0.01677,0.999846
15666,4517033,-0.199175,0.074913,9.789467,0.004981,-0.002937,-0.001349,,,,-0.000498,0.000187,0.024474,1,0.000006,-0.000004,-0.000002,,0.999961,0.008393,-0.00256,-0.00095,0.962092,-0.29245,-0.111338,0.999985,-0.001943,0.005104,0.001857,0.999857,0.016791,-0.005136,-0.016781,0.999846
15667,4517058,0.184253,0.226321,9.757187,-0.001396,0.000862,0.000042,,,,0.000461,0.000566,0.024393,1,-0.000002,0.000001,0,,0.999961,0.00839,-0.002559,-0.00095,0.961779,-0.292287,-0.11137,0.999985,-0.001944,0.005101,0.001858,0.999857,0.016785,-0.005133,-0.016775,0.999846
15668,4517083,-0.146476,0.095865,9.84423,0.007593,-0.001265,0.002546,,,,-0.000366,0.000239,0.024611,1,0.000009,-0.000002,0.000003,,0.999961,0.008399,-0.00256,-0.000948,0.962756,-0.292469,-0.111053,0.999985,-0.001938,0.005105,0.001852,0.999857,0.016802,-0.005136,-0.016793,0.999846
15669,4517108,0.263996,0.225644,9.77996,-0.006625,0.003139,0.000139,-0.224994,-0.35215,0.399928,0.00066,0.000565,0.02445,1,-0.000008,0.000004,0,100638,0.999961,0.00839,-0.002556,-0.000948,0.961699,-0.292013,-0.111071,0.999985,-0.001939,0.005097,0.001853,0.999857,0.016784,-0.005128,-0.016774,0.999846
15670,4517133,-0.2438,0.094597,9.757471,0.0035,-0.002177,0.004218,,,,-0.00061,0.000236,0.024394,1,0.000004,-0.000003,0.000005,,0.999961,0.008393,-0.002559,-0.000943,0.962089,-0.292329,-0.110517,0.999985,-0.001929,0.005102,0.001843,0.999857,0.016791,-0.005134,-0.016781,0.999846
15671,4517158,0.211132,0.187211,9.806754,-0.001732,0.001445,0.001191,,,,0.000528,0.000468,0.024517,1,-0.000002,0.000002,0.000001,,0.999961,0.00839,-0.002557,-0.000942,0.961726,-0.292085,-0.110448,0.999985,-0.001928,0.005098,0.001842,0.999858,0.016784,-0.005129,-0.016775,0.999846
15672,4517183,-0.10182,0.158909,9.841869,0.006903,-0.002296,0.000563,,,,-0.000255,0.000397,0.024605,1,0.000009,-0.000003,0.000001,,0.999961,0.008398,-0.00256,-0.000942,0.962606,-0.292409,-0.110418,0.999985,-0.001927,0.005103,0.001841,0.999857,0.0168,-0.005135,-0.01679,0.999846
15673,4517208,0.127705,0.11987,9.782555,-0.002243,0.004555,-0.000153,-0.226416,-0.353622,0.40091,0.00032,0.0003,0.024456,1,-0.000003,0.000006,0,100636,0.999961,0.008394,-0.002554,-0.000943,0.962177,-0.29175,-0.110474,0.999985,-0.001928,0.005092,0.001842,0.999857,0.016792,-0.005124,-0.016783,0.999846
15674,4517233,-0.031489,0.219296,9.815474,0.007727,-0.005099,0.000835,,,,-0.000079,0.000548,0.024539,1,0.00001,-0.000006,0.000001,,0.999961,0.008403,-0.00256,-0.000942,0.963175,-0.292476,-0.110412,0.999985,-0.001927,0.005105,0.001841,0.999857,0.01681,-0.005136,-0.0168,0.999846
15675,4517240,,,,,,,,,,,,,,,,,,,,,,,,,,,,,,,,,
15676,4517258,0.08163,0.074285,9.793115,-0.001213,0.00019,0.003397,,,,0.000204,0.000186,0.024483,1,-0.000002,0,0.000004,,0.999961,0.0084,-0.00256,-0.000939,0.962885,-0.292416,-0.110037,0.999985,-0.00192,0.005104,0.001834,0.999857,0.016804,-0.005135,-0.016795,0.999846
15677,4517283,-0.052681,0.218486,9.827755,0.002874,-0.000405,-0.000721,,,,-0.000132,0.000546,0.024569,1,0.000004,-0.000001,-0.000001,,0.999961,0.008403,-0.00256,-0.00094,0.963189,-0.292467,-0.110187,0.999985,-0.001923,0.005104,0.001837,0.999857,0.01681,-0.005136,-0.0168,0.999846
15678,4517308,0.035504,0.1307,9.817483,-0.00297,0.000819,-0.000229,-0.220164,-0.354153,0.399983,0.000089,0.000327,0.024544,1,-0.000004,0.000001,0,100638,0.999961,0.008398,-0.002559,-0.000941,0.962655,-0.292343,-0.110263,0.999985,-0.001924,0.005102,0.001838,0.999857,0.016801,-0.005134,-0.016791,0.999846
15679,4517333,0.110898,0.237962,9.80222,0.002796,-0.001316,0.002497,,,,0.000277,0.000595,0.024506,1,0.000003,-0.000002,0.000003,,0.999961,0.008401,-0.002561,-0.000938,0.962946,-0.292531,-0.109953,0.999985,-0.001919,0.005106,0.001833,0.999857,0.016806,-0.005137,-0.016796,0.999846
15680,4517358,-0.028186,0.122163,9.805131,0.001851,0.000208,-0.00094,,,,-0.00007,0.000305,0.024513,1,0.000002,0,-0.000001,,0.999961,0.008402,-0.00256,-0.00094,0.963098,-0.292458,-0.110196,0.999985,-0.001923,0.005104,0.001837,0.999857,0.016808,-0.005136,-0.016799,0.999846
15681,4517383,0.055284,0.205866,9.84149,0.000616,0.002167,-0.000006,,,,0.000138,0.000515,0.024604,1,0.000001,0.000003,0,,0.999961,0.008402,-0.002557,-0.000941,0.963078,-0.292142,-0.110236,0.999985,-0.001924,0.005099,0.001838,0.999857,0.016808,-0.00513,-0.016798,0.999846
15682,4517408,0.020086,0.169791,9.838557,-0.001413,-0.002404,0.000385,-0.225467,-0.353138,0.398443,0.00005,0.000425,0.024596,1,-0.000002,-0.000003,0,100630,0.999961,0.008399,-0.00256,-0.00094,0.962768,-0.292481,-0.110232,0.999985,-0.001924,0.005105,0.001838,0.999857,0.016802,-0.005136,-0.016793,0.999846
15683,4517433,0.070614,0.134235,9.76889,0.003146,0.002212,0.001856,,,,0.000177,0.000335,0.024422,1,0.000004,0.000003,0.000002,,0.999961,0.008402,-0.002558,-0.000939,0.963109,-0.292162,-0.110006,0.999985,-0.00192,0.005099,0.001834,0.999857,0.016808,-0.005131,-0.016799,0.999846
15684,4517458,-0.10454,0.222444,9.817362,-0.001018,0.000793,0.003193,,,,-0.000261,0.000556,0.024543,1,-0.000001,0.000001,0.000004,,0.999961,0.0084,-0.002556,-0.000935,0.962847,-0.292016,-0.109656,0.999985,-0.001914,0.005097,0.001828,0.999857,0.016804,-0.005128,-0.016794,0.999846
15685,4517483,0.133816,0.160934,9.788489,-0.000925,0.000345,-0.000231,,,,0.000335,0.000402,0.024471,1,-0.000001,0,0,,0.999961,0.008398,-0.002556,-0.000936,0.962607,-0.29196,-0.109733,0.999985,-0.001915,0.005096,0.001829,0.999857,0.0168,-0.005127,-0.01679,0.999846
15686,4517508,-0.08417,0.148684,9.793447,0.002197,0.003254,0.000968,-0.224516,-0.352155,0.398942,-0.00021,0.000372,0.024484,1,0.000003,0.000004,0.000001,100636,0.999961,0.0084,-0.002552,-0.000935,0.962812,-0.29149,-0.109632,0.999985,-0.001913,0.005087,0.001828,0.999857,0.016803,-0.005119,-0.016794,0.999846
15687,4517533,0.070613,0.104896,9.779716,-0.000346,0.003169,-0.001135,,,,0.000177,0.000262,0.024449,1,0,0.000004,-0.000001,,0.999961,0.008398,-0.002548,-0.000937,0.962656,-0.291028,-0.109832,0.999985,-0.001917,0.005079,0.001831,0.999857,0.016801,-0.005111,-0.016791,0.999846
15688,4517558,-0.020533,0.239461,9.837578,0.003605,-0.005504,0.004487,,,,-0.000052,0.000598,0.024594,1,0.000005,-0.000007,0.000006,,0.999961,0.008402,-0.002554,-0.000932,0.963055,-0.291785,-0.109283,0.999985,-0.001907,0.005093,0.001821,0.999857,0.016807,-0.005124,-0.016798,0.999846
15689,4517583,0.071256,0.064961,9.820104,0.001612,0.001269,0.001922,,,,0.000178,0.000162,0.02455,1,0.000002,0.000002,0.000002,,0.999961,0.008403,-0.002553,-0.00093,0.963176,-0.291602,-0.10905,0.999985,-0.001903,0.005089,0.001817,0.999857,0.01681,-0.005121,-0.0168,0.999846
15690,4517608,0.160632,0.273003,9.778283,0.001556,-0.000341,0.001004,-0.224509,-0.35215,0.401417,0.000402,0.000682,0.024446,1,0.000002,0,0.000001,100638,0.999961,0.008404,-0.002553,-0.000929,0.963291,-0.291647,-0.108952,0.999985,-0.001902,0.00509,0.001816,0.999857,0.016812,-0.005121,-0.016802,0.999846
15691,4517633,-0.152217,-0.015669,9.768128,0.003766,-0.000553,-0.003567,,,,-0.000381,-0.000039,0.02442,1,0.000005,-0.000001,-0.000004,,0.999961,0.008408,-0.002554,-0.000934,0.963725,-0.291712,-0.10951,0.999985,-0.001911,0.005091,0.001825,0.999857,0.016819,-0.005123,-0.01681,0.999845
15692,4517658,0.166446,0.308347,9.864066,0.000993,-0.001197,0.000016,,,,0.000416,0.000771,0.02466,1,0.000001,-0.000001,0,,0.999961,0.008408,-0.002555,-0.000935,0.963753,-0.291842,-0.109581,0.999985,-0.001913,0.005094,0.001827,0.999857,0.01682,-0.005125,-0.01681,0.999846
15693,4517683,-0.038586,0.008069,9.775543,-0.001529,0.001387,0.001923,,,,-0.000096,0.00002,0.024439,1,-0.000002,0.000002,0.000002,,0.999961,0.008405,-0.002553,-0.000933,0.963425,-0.291642,-0.109348,0.999985,-0.001908,0.00509,0.001823,0.999857,0.016814,-0.005121,-0.016804,0.999846
15694,4517708,0.021032,0.248497,9.81221,0.002635,0.001828,0.000969,-0.223538,-0.353144,0.400936,0.000053,0.000621,0.024531,1,0.000003,0.000002,0.000001,100640,0.999961,0.008407,-0.002551,-0.000932,0.963693,-0.291377,-0.10925,0.999985,-0.001907,0.005085,0.001821,0.999857,0.016819,-0.005117,-0.016809,0.999846
15695,4517733,0.013532,0.144241,9.798479,0.000889,-0.005436,-0.001109,,,,0.000033,0.000361,0.024496,1,0.000001,-0.000007,-0.000001,,0.999961,0.008407,-0.002557,-0.000934,0.963713,-0.292146,-0.109466,0.999985,-0.001911,0.005099,0.001825,0.999857,0.016819,-0.00513,-0.016809,0.999846
15696,4517758,0.077066,0.153528,9.832453,0.002342,0.002526,-0.000621,,,,0.000193,0.000384,0.024581,1,0.000003,0.000003,-0.000001,,0.999961,0.008409,-0.002554,-0.000936,0.963936,-0.291742,-0.109679,0.999985,-0.001914,0.005092,0.001828,0.999857,0.016823,-0.005123,-0.016813,0.999846
15697,4517783,0.003715,0.232328,9.785769,0.002464,-0.003679,0.000998,,,,0.000009,0.000581,0.024464,1,0.000003,-0.000005,0.000001,,0.999961,0.008411,-0.002558,-0.000935,0.96418,-0.292266,-0.10959,0.999985,-0.001913,0.005101,0.001827,0.999857,0.016827,-0.005132,-0.016818,0.999846
15698,4517808,-0.014644,0.093573,9.762762,0.004626,0.004109,0.000039,-0.222583,-0.353155,0.398471,-0.000036,0.000234,0.024407,1,0.000006,0.000005,0,100636,0.999961,0.008416,-0.002553,-0.000935,0.964734,-0.291671,-0.109619,0.999985,-0.001913,0.005091,0.001827,0.999857,0.016837,-0.005122,-0.016827,0.999845
15699,4517833,0.150774,0.315881,9.835935,0.000031,0.001074,0.001045,,,,0.000377,0.00079,0.02459,1,0,0.000001,0.000001,,0.999961,0.008415,-0.002552,-0.000934,0.96463,-0.291514,-0.109512,0.999985,-0.001911,0.005088,0.001825,0.999857,0.016835,-0.005119,-0.016825,0.999845
15700,4517858,-0.144873,0.048154,9.80594,0.000747,0.003312,-0.00153,,,,-0.000362,0.00012,0.024515,1,0.000001,0.000004,-0.000002,,0.999961,0.008415,-0.002547,-0.000937,0.964624,-0.290995,-0.10979,0.999985,-0.001916,0.005079,0.00183,0.999857,0.016835,-0.00511,-0.016825,0.999845
15701,4517883,0.177443,0.330592,9.787324,-0.001909,0.003424,0.000591,,,,0.000444,0.000827,0.024468,1,-0.000002,0.000004,0.000001,,0.999961,0.008412,-0.002543,-0.000936,0.964242,-0.2905,-0.109742,0.999985,-0.001915,0.00507,0.00183,0.999857,0.016828,-0.005102,-0.016819,0.999846
15702,4517908,-0.166902,0.04207,9.782767,0.00155,-0.000612,-0.001936,-0.223557,-0.351664,0.399939,-0.000417,0.000105,0.024457,1,0.000002,-0.000001,-0.000002,100637,0.999961,0.008413,-0.002544,-0.000939,0.964358,-0.290577,-0.110066,0.999985,-0.001921,0.005071,0.001835,0.999857,0.01683,-0.005103,-0.016821,0.999846
15703,4517933,0.163614,0.230201,9.768083,-0.00263,0.001448,-0.001751,,,,0.000409,0.000576,0.02442,1,-0.000003,0.000002,-0.000002,,0.999961,0.008409,-0.002542,-0.000942,0.963874,-0.290359,-0.110358,0.999985,-0.001926,0.005068,0.001841,0.999857,0.016822,-0.005099,-0.016812,0.999846
15704,4517958,-0.147728,0.07588,9.85286,0.007448,-0.00179,-0.002696,,,,-0.000369,0.000189,0.024632,1,0.000009,-0.000002,-0.000003,,0.999961,0.008417,-0.002544,-0.000946,0.964829,-0.290567,-0.110891,0.999985,-0.001935,0.005071,0.00185,0.999857,0.016838,-0.005103,-0.016829,0.999845
15705,4517983,0.215789,0.253919,9.775235,-0.002789,0.001133,0.000099,,,,0.00054,0.000635,0.024438,1,-0.000003,0.000001,0,,0.999961,0.008413,-0.002542,-0.000947,0.964321,-0.290399,-0.110919,0.999985,-0.001936,0.005068,0.00185,0.999857,0.01683,-0.0051,-0.01682,0.999846
15706,4518008,-0.043103,0.085334,9.832404,0.005028,0.003748,-0.001301,-0.226414,-0.354119,0.399428,-0.000108,0.000213,0.024581,1,0.000006,0.000005,-0.000002,100638,0.999961,0.008418,-0.002538,-0.000949,0.964934,-0.289853,-0.111142,0.999985,-0.00194,0.005059,0.001854,0.999857,0.01684,-0.005091,-0.016831,0.999846
15707,4518033,0.020439,0.218399,9.821585,-0.00456,0.002674,0.001872,,,,0.000051,0.000546,0.024554,1,-0.000006,0.000003,0.000002,,0.999961,0.008411,-0.002534,-0.000947,0.964172,-0.289468,-0.110912,0.999985,-0.001936,0.005052,0.00185,0.999857,0.016827,-0.005084,-0.016817,0.999846
15708,4518058,-0.026319,0.028942,9.731126,0.002878,-0.00305,-0.001328,,,,-0.000066,0.000072,0.024328,1,0.000004,-0.000004,-0.000002,,0.999961,0.008414,-0.002538,-0.00095,0.964471,-0.289861,-0.111262,0.999985,-0.001942,0.005059,0.001856,0.999857,0.016832,-0.005091,-0.016823,0.999846
15709,4518083,0.079506,0.288173,9.824039,-0.002094,-0.000781,-0.002906,,,,0.000199,0.000721,0.02456,1,-0.000003,-0.000001,-0.000004,,0.999961,0.00841,-0.002538,-0.000954,0.964065,-0.289959,-0.111725,0.999985,-0.00195,0.005061,0.001865,0.999857,0.016825,-0.005093,-0.016815,0.999846
15710,4518108,0.090542,0.041379,9.807801,0.005398,0.00037,0.000788,-0.222568,-0.353642,0.401937,0.000226,0.000103,0.02452,1,0.000007,0,0.000001,100633,0.999961,0.008416,-0.002538,-0.000953,0.96473,-0.289902,-0.111657,0.999985,-0.001949,0.00506,0.001863,0.999857,0.016837,-0.005092,-0.016827,0.999846
15711,4518133,-0.100714,0.235116,9.778091,0.005332,0.002243,0.00279,,,,-0.000252,0.000587,0.024445,1,0.000007,0.000003,0.000003,,0.999961,0.008422,-0.002535,-0.00095,0.965384,-0.289582,-0.111297,0.999985,-0.001942,0.005054,0.001857,0.999856,0.016848,-0.005086,-0.016838,0.999845
15712,4518158,0.111637,0.070624,9.793139,0.001139,0.002518,-0.001222,,,,0.000279,0.000176,0.024483,1,0.000001,0.000003,-0.000002,,0.999961,0.008422,-0.002532,-0.000953,0.965434,-0.289177,-0.111639,0.999986,-0.001948,0.005047,0.001863,0.999856,0.016849,-0.005079,-0.016839,0.999845
15713,4518183,-0.141725,0.307944,9.877729,0.002032,-0.005385,0.001363,,,,-0.000355,0.00077,0.024694,1,0.000003,-0.000007,0.000002,,0.999961,0.008424,-0.002538,-0.000952,0.965616,-0.289946,-0.111502,0.999986,-0.001946,0.00506,0.001861,0.999856,0.016852,-0.005093,-0.016843,0.999845
15714,4518208,0.209454,0.072854,9.787395,-0.003144,0.003769,0.002111,-0.226395,-0.355599,0.400425,0.000524,0.000182,0.024468,1,-0.000004,0.000005,0.000003,100637,0.999961,0.008419,-0.002534,-0.000949,0.965056,-0.289405,-0.111236,0.999986,-0.001941,0.005051,0.001856,0.999857,0.016842,-0.005083,-0.016833,0.999846
15715,4518233,-0.011596,0.30561,9.836602,0.000203,-0.00245,0.002974,,,,-0.000029,0.000764,0.024592,1,0,-0.000003,0.000004,,0.999961,0.008418,-0.002536,-0.000947,0.96497,-0.289722,-0.110955,0.999985,-0.001937,0.005057,0.001851,0.999856,0.016841,-0.005088,-0.016831,0.999845
15716,4518258,-0.011617,0.03149,9.741759,-0.002167,-0.001715,-0.001533,,,,-0.000029,0.000079,0.024354,1,-0.000003,-0.000002,-0.000002,,0.999961,0.008415,-0.002538,-0.000949,0.964552,-0.289958,-0.111224,0.999985,-0.001941,0.005061,0.001856,0.999857,0.016834,-0.005093,-0.016824,0.999846
15717,4518283,-0.069578,0.254762,9.830163,0.003397,0.001308,0.000819,,,,-0.000174,0.000637,0.024575,1,0.000004,0.000002,0.000001,,0.999961,0.008418,-0.002537,-0.000949,0.96493,-0.289766,-0.111148,0.999985,-0.00194,0.005057,0.001854,0.999857,0.01684,-0.005089,-0.016831,0.999846
15718,4518308,0.101844,0.142873,9.804914,0.000491,-0.003576,-0.001244,-0.221113,-0.355134,0.400473,0.000254,0.000357,0.024512,1,0.000001,-0.000004,-0.000002,100634,0.999961,0.008418,-0.002541,-0.000951,0.964893,-0.29027,-0.11138,0.999985,-0.001944,0.005066,0.001858,0.999857,0.01684,-0.005098,-0.01683,0.999846
15719,4518333,-0.044485,0.14346,9.797309,0.003048,0.002832,0.003891,,,,-0.000111,0.000358,0.024493,1,0.000004,0.000004,0.000005,,0.999961,0.008421,-0.002538,-0.000946,0.965219,-0.289867,-0.110861,0.999985,-0.001935,0.005059,0.001849,0.999857,0.016845,-0.005091,-0.016836,0.999845
15720,4518358,-0.031735,0.242557,9.782434,0.00057,-0.001919,-0.000551,,,,-0.000079,0.000606,0.024456,1,0.000001,-0.000002,-0.000001,,0.999961,0.00842,-0.00254,-0.000947,0.965187,-0.2901,-0.110982,0.999985,-0.001937,0.005063,0.001851,0.999856,0.016845,-0.005095,-0.016835,0.999845
15721,4518383,0.054281,0.058693,9.795785,0.001714,-0.0036,0.000585,,,,0.000135,0.000147,0.024489,1,0.000002,-0.000005,0.000001,,0.999961,0.008421,-0.002544,-0.000947,0.965324,-0.290611,-0.110952,0.999985,-0.001936,0.005072,0.001851,0.999856,0.016847,-0.005104,-0.016837,0.999845
15722,4518408,0.067486,0.248608,9.845783,-0.001553,0.001375,-0.000076,-0.221618,-0.353157,0.399965,0.000169,0.000622,0.024614,1,-0.000002,0.000002,0,100636,0.999961,0.008419,-0.002542,-0.000947,0.964994,-0.290408,-0.111004,0.999985,-0.001937,0.005069,0.001852,0.999856,0.016841,-0.0051,-0.016832,0.999845
15723,4518433,0.031965,0.07544,9.751749,-0.000803,-0.000675,0.001089,,,,0.00008,0.000189,0.024379,1,-0.000001,-0.000001,0.000001,,0.999961,0.008417,-0.002543,-0.000946,0.96477,-0.290502,-0.110895,0.999985,-0.001935,0.00507,0.00185,0.999857,0.016837,-0.005102,-0.016828,0.999845
15724,4518458,0.038054,0.187667,9.781909,0.001279,0.000893,0.00113,,,,0.000095,0.000469,0.024455,1,0.000002,0.000001,0.000001,,0.999961,0.008417,-0.002542,-0.000946,0.964838,-0.290334,-0.110884,0.999985,-0.001935,0.005067,0.00185,0.999857,0.016839,-0.005099,-0.016829,0.999845
15725,4518483,0.099576,0.110812,9.803937,-0.000179,-0.003423,0.001063,,,,0.000249,0.000277,0.02451,1,0,-0.000004,0.000001,,0.999961,0.008416,-0.002546,-0.000945,0.964704,-0.290821,-0.110785,0.999985,-0.001934,0.005076,0.001848,0.999857,0.016836,-0.005108,-0.016827,0.999845
15726,4518508,-0.054154,0.188321,9.839366,0.002681,0.002313,0.000382,-0.223566,-0.351172,0.398947,-0.000135,0.000471,0.024598,1,0.000003,0.000003,0,100636,0.999961,0.008418,-0.002543,-0.000945,0.96498,-0.290485,-0.11077,0.999985,-0.001933,0.00507,0.001848,0.999857,0.016841,-0.005102,-0.016831,0.999845
15727,4518533,0.199864,0.159579,9.759356,-0.000739,0.003033,0.000941,,,,0.0005,0.000399,0.024398,1,-0.000001,0.000004,0.000001,,0.999961,0.008417,-0.002539,-0.000944,0.964765,-0.290046,-0.110673,0.999985,-0.001932,0.005062,0.001846,0.999857,0.016837,-0.005094,-0.016828,0.999845
15728,4518558,-0.256444,0.203863,9.77595,-0.000355,-0.001918,-0.000773,,,,-0.000641,0.00051,0.02444,1,0,-0.000002,-0.000001,,0.999961,0.008415,-0.002541,-0.000946,0.964601,-0.290278,-0.110869,0.999985,-0.001935,0.005066,0.001849,0.999857,0.016834,-0.005098,-0.016825,0.999845
15729,4518583,0.248765,0.092215,9.759164,0.001744,0.001018,0.000577,,,,0.000622,0.00023,0.024398,1,0.000002,0.000001,0.000001,,0.999961,0.008416,-0.00254,-0.000946,0.964742,-0.290127,-0.110829,0.999985,-0.001934,0.005064,0.001849,0.999857,0.016837,-0.005095,-0.016827,0.999845
15730,4518608,-0.129996,0.300019,9.822034,0.003608,-0.006421,-0.0009,-0.221138,-0.353161,0.399474,-0.000325,0.00075,0.024555,1,0.000005,-0.000008,-0.000001,100630,0.999961,0.00842,-0.002548,-0.000947,0.965151,-0.291039,-0.111019,0.999985,-0.001938,0.00508,0.001852,0.999856,0.016844,-0.005111,-0.016834,0.999845
15731,4518633,0.108328,0.028163,9.805061,-0.002661,0.003324,0.00309,,,,0.000271,0.000071,0.024513,1,-0.000003,0.000004,0.000004,,0.999961,0.008416,-0.002544,-0.000944,0.96466,-0.290564,-0.110613,0.999985,-0.001931,0.005071,0.001845,0.999857,0.016835,-0.005103,-0.016826,0.999845
15732,4518658,-0.017351,0.405113,9.810941,0.007456,-0.004086,0.00056,,,,-0.000044,0.001012,0.024527,1,0.000009,-0.000005,0.000001,,0.999961,0.008424,-0.002548,-0.000945,0.965614,-0.291109,-0.110689,0.999985,-0.001932,0.005081,0.001846,0.999856,0.016852,-0.005113,-0.016842,0.999845
15733,4518683,-0.038122,-0.068435,9.757066,-0.002328,0.002905,-0.002839,,,,-0.000095,-0.000171,0.024393,1,-0.000003,0.000004,-0.000004,,0.999961,0.00842,-0.002545,-0.000948,0.965174,-0.29068,-0.111134,0.999985,-0.00194,0.005073,0.001854,0.999857,0.016844,-0.005105,-0.016835,0.999845
15734,4518708,0.232692,0.354749,9.834976,0.003213,-0.001656,0.00321,-0.221608,-0.354146,0.399474,0.000582,0.000887,0.024587,1,0.000004,-0.000002,0.000004,100637,0.999961,0.008423,-0.002547,-0.000945,0.965524,-0.290919,-0.110723,0.999985,-0.001932,0.005077,0.001847,0.999857,0.016851,-0.005109,-0.016841,0.999845
15735,4518733,-0.2158,-0.006921,9.811899,0.00067,0.005158,0.001074,,,,-0.000539,-0.000017,0.02453,1,0.000001,0.000006,0.000001,,0.999961,0.008423,-0.00254,-0.000944,0.965511,-0.290177,-0.110602,0.999986,-0.00193,0.005065,0.001845,0.999857,0.01685,-0.005096,-0.016841,0.999845
15736,4518758,0.157933,0.341425,9.800361,-0.000545,-0.003996,0.002267,,,,0.000395,0.000854,0.024501,1,-0.000001,-0.000005,0.000003,,0.999961,0.008421,-0.002545,-0.000942,0.965317,-0.290713,-0.110412,0.999985,-0.001927,0.005074,0.001841,0.999856,0.016847,-0.005106,-0.016837,0.999845
15737,4518783,0.002286,-0.054712,9.789348,-0.000767,0.000113,0.001777,,,,0.000006,-0.000137,0.024473,1,-0.000001,0,0.000002,,0.999961,0.008419,-0.002545,-0.00094,0.965098,-0.290695,-0.110202,0.999985,-0.001923,0.005074,0.001838,0.999857,0.016843,-0.005105,-0.016834,0.999845
15738,4518808,0.031292,0.297948,9.833407,0.000832,0.001476,0.000732,-0.222564,-0.354636,0.398973,0.000078,0.000745,0.024584,1,0.000001,0.000002,0.000001,100634,0.999961,0.00842,-0.002543,-0.00094,0.965109,-0.290479,-0.110139,0.999985,-0.001922,0.00507,0.001837,0.999856,0.016843,-0.005101,-0.016834,0.999845
15739,4518833,0.105512,0.039969,9.792876,0.002348,0.002455,-0.00031,,,,0.000264,0.0001,0.024482,1,0.000003,0.000003,0,,0.999961,0.008422,-0.00254,-0.000941,0.965337,-0.290121,-0.110222,0.999985,-0.001924,0.005064,0.001838,0.999856,0.016847,-0.005095,-0.016838,0.999845
15740,4518858,-0.03449,0.339732,9.802486,-0.002517,-0.000355,0.000555,,,,-0.000086,0.000849,0.024506,1,-0.000003,0,0.000001,,0.999961,0.008417,-0.00254,-0.000941,0.964862,-0.290131,-0.110256,0.999986,-0.001924,0.005064,0.001839,0.999857,0.016839,-0.005095,-0.016829,0.999846
15741,4518883,0.112187,-0.068228,9.739947,0.003263,0.000509,0.000346,,,,0.00028,-0.000171,0.02435,1,0.000004,0.000001,0,,0.999961,0.008421,-0.002539,-0.000941,0.965221,-0.290053,-0.11025,0.999986,-0.001924,0.005062,0.001839,0.999857,0.016845,-0.005094,-0.016836,0.999846
15742,4518908,0.093313,0.314462,9.853079,-0.001456,-0.000751,0.001048,-0.224051,-0.350674,0.399435,0.000233,0.000786,0.024633,1,-0.000002,-0.000001,0.000001,100635,0.999961,0.008418,-0.00254,-0.00094,0.964904,-0.290157,-0.110146,0.999986,-0.001922,0.005064,0.001837,0.999857,0.01684,-0.005096,-0.01683,0.999846
15743,4518933,-0.08725,-0.007527,9.811997,-0.003618,0.00244,0.00013,,,,-0.000218,-0.000019,0.02453,1,-0.000005,0.000003,0,,0.999961,0.008412,-0.002537,-0.00094,0.964277,-0.289802,-0.110167,0.999986,-0.001923,0.005058,0.001837,0.999857,0.016829,-0.00509,-0.016819,0.999846
15744,4518958,-0.020656,0.373628,9.814072,0.000077,-0.005399,0.001495,,,,-0.000052,0.000934,0.024535,1,0,-0.000007,0.000002,,0.999961,0.008411,-0.002543,-0.000939,0.964173,-0.290538,-0.110074,0.999985,-0.001921,0.005071,0.001836,0.999857,0.016827,-0.005102,-0.016817,0.999846
15745,4518983,0.086309,0.030291,9.79848,-0.003414,0.002866,-0.001968,,,,0.000216,0.000076,0.024496,1,-0.000004,0.000004,-0.000002,,0.999961,0.008406,-0.00254,-0.000942,0.963578,-0.290116,-0.110394,0.999985,-0.001927,0.005063,0.001841,0.999857,0.016817,-0.005095,-0.016807,0.999846
15746,4519008,-0.004214,0.218793,9.826754,0.001786,0.002629,-0.002089,-0.224491,-0.354628,0.397469,-0.00001,0.000547,0.024567,1,0.000002,0.000003,-0.000003,100637,0.999961,0.008408,-0.002536,-0.000945,0.963727,-0.289729,-0.110732,0.999986,-0.001933,0.005057,0.001847,0.999857,0.016819,-0.005088,-0.01681,0.999846
15747,4519033,-0.044182,0.130552,9.764339,-0.003156,-0.002788,-0.000127,,,,-0.000111,0.000327,0.024411,1,-0.000004,-0.000003,0,,0.999961,0.008403,-0.00254,-0.000946,0.963167,-0.290122,-0.110802,0.999986,-0.001934,0.005064,0.001848,0.999857,0.016809,-0.005095,-0.0168,0.999846
15748,4519058,0.139289,0.253507,9.822438,0.001771,0.000707,-0.002578,,,,0.000348,0.000634,0.024556,1,0.000002,0.000001,-0.000003,,0.999961,0.008404,-0.002539,-0.00095,0.963309,-0.289972,-0.111292,0.999985,-0.001942,0.005061,0.001857,0.999857,0.016812,-0.005093,-0.016802,0.999846
15749,4519083,-0.026654,0.132691,9.791257,-0.002487,-0.003962,-0.000896,,,,-0.000067,0.000332,0.024478,1,-0.000003,-0.000005,-0.000001,,0.999961,0.0084,-0.002543,-0.000951,0.962845,-0.290531,-0.111475,0.999985,-0.001946,0.005071,0.00186,0.999857,0.016804,-0.005103,-0.016794,0.999846
15750,4519108,0.058055,0.139246,9.761882,0.000396,0.003888,0.000206,-0.222576,-0.35315,0.400945,0.000145,0.000348,0.024405,1,0,0.000005,0,100634,0.999961,0.008399,-0.002539,-0.000952,0.962794,-0.289969,-0.111481,0.999985,-0.001946,0.005061,0.00186,0.999857,0.016803,-0.005093,-0.016793,0.999846
15751,4519133,-0.01676,0.171406,9.836461,-0.002635,-0.000998,0.000588,,,,-0.000042,0.000429,0.024591,1,-0.000003,-0.000001,0.000001,,0.999961,0.008395,-0.00254,-0.000951,0.962308,-0.290107,-0.111444,0.999986,-0.001945,0.005063,0.00186,0.999857,0.016794,-0.005095,-0.016785,0.999846
15752,4519158,0.057357,0.19067,9.811832,-0.00266,0.002181,-0.001536,,,,0.000144,0.000477,0.02453,1,-0.000003,0.000003,-0.000002,,0.999961,0.008391,-0.002537,-0.000954,0.961813,-0.28975,-0.111709,0.999985,-0.00195,0.005057,0.001865,0.999858,0.016786,-0.005089,-0.016776,0.999846
15753,4519183,0.105136,0.164002,9.774138,-0.00221,0.003176,-0.000517,,,,0.000263,0.00041,0.024435,1,-0.000003,0.000004,-0.000001,,0.999961,0.008387,-0.002533,-0.000955,0.961389,-0.289288,-0.111821,0.999986,-0.001952,0.005049,0.001867,0.999858,0.016778,-0.005081,-0.016769,0.999847
15754,4519208,-0.043946,0.155049,9.817718,0.003121,-0.001703,0.002173,-0.224519,-0.351161,0.401907,-0.00011,0.000387,0.024544,1,0.000004,-0.000002,0.000003,100634,0.999961,0.00839,-0.002535,-0.000952,0.961726,-0.289531,-0.111559,0.999986,-0.001947,0.005053,0.001862,0.999858,0.016784,-0.005085,-0.016775,0.999847
15755,4519233,0.104369,0.119732,9.787251,-0.003007,0.002406,0.000586,,,,0.000261,0.0003,0.024468,1,-0.000004,0.000003,0.000001,,0.999961,0.008385,-0.002532,-0.000952,0.961187,-0.289182,-0.111514,0.999986,-0.001946,0.005047,0.001861,0.999858,0.016775,-0.005079,-0.016765,0.999847
15756,4519258,0.00115,0.213279,9.815407,-0.001371,0.002667,-0.000805,,,,0.000003,0.000533,0.024539,1,-0.000002,0.000003,-0.000001,,0.999961,0.008383,-0.002528,-0.000954,0.960878,-0.288756,-0.111728,0.999985,-0.00195,0.00504,0.001865,0.999858,0.016769,-0.005072,-0.01676,0.999847
15757,4519283,0.090466,0.103806,9.772635,-0.00003,-0.00041,0.00109,,,,0.000226,0.00026,0.024432,1,0,-0.000001,0.000001,,0.999961,0.008382,-0.002528,-0.000953,0.960765,-0.288811,-0.111618,0.999985,-0.001948,0.005041,0.001863,0.999858,0.016768,-0.005073,-0.016758,0.999847
15758,4519308,-0.059025,0.183185,9.798787,0.003213,-0.002201,0.00251,-0.2221,-0.352657,0.401443,-0.000148,0.000458,0.024497,1,0.000004,-0.000003,0.000003,100636,0.999961,0.008385,-0.002531,-0.00095,0.961115,-0.289126,-0.111309,0.999985,-0.001943,0.005046,0.001858,0.999858,0.016774,-0.005078,-0.016764,0.999847
15759,4519333,0.014712,0.154322,9.820509,0.000709,0.000892,0.000291,,,,0.000037,0.000386,0.024551,1,0.000001,0.000001,0,,0.999961,0.008385,-0.00253,-0.00095,0.961108,-0.288993,-0.11131,0.999985,-0.001943,0.005044,0.001858,0.999858,0.016774,-0.005076,-0.016764,0.999847
15760,4519358,0.038388,0.194847,9.788394,0.000464,0.000864,0.000075,,,,0.000096,0.000487,0.024471,1,0.000001,0.000001,0,,0.999961,0.008384,-0.002529,-0.000951,0.96106,-0.288829,-0.111362,0.999986,-0.001944,0.005041,0.001859,0.999858,0.016773,-0.005073,-0.016763,0.999847
15761,4519383,-0.005806,0.181675,9.807036,0.001932,0.002553,0.00655,,,,-0.000014,0.000454,0.024518,1,0.000002,0.000003,0.000008,,0.999961,0.008386,-0.002525,-0.000943,0.961224,-0.288473,-0.110463,0.999986,-0.001928,0.005035,0.001843,0.999858,0.016776,-0.005066,-0.016766,0.999847
15762,4519408,0.082348,0.211318,9.781742,0.00033,-0.000896,0.000987,-0.224006,-0.354628,0.398958,0.000206,0.000528,0.024454,1,0,-0.000001,0.000001,100638,0.999961,0.008385,-0.002526,-0.000942,0.961162,-0.288597,-0.110368,0.999986,-0.001926,0.005037,0.001842,0.999858,0.016774,-0.005069,-0.016765,0.999847
15763,4519433,-0.089832,0.081731,9.775208,0.004961,0.001741,-0.005117,,,,-0.000224,0.000204,0.024438,1,0.000006,0.000002,-0.000006,,0.999961,0.00839,-0.002524,-0.000949,0.961768,-0.288329,-0.111142,0.999986,-0.00194,0.005032,0.001855,0.999858,0.016785,-0.005064,-0.016775,0.999847
15764,4519458,0.14849,0.311809,9.827163,-0.002676,0.00188,0.001878,,,,0.000371,0.00078,0.024568,1,-0.000003,0.000002,0.000002,,0.999961,0.008386,-0.002522,-0.000947,0.961275,-0.288059,-0.110914,0.999986,-0.001936,0.005028,0.001851,0.999858,0.016776,-0.005059,-0.016767,0.999847
15765,4519483,-0.132519,0.047943,9.784675,0.001835,0.000263,0.000886,,,,-0.000331,0.00012,0.024462,1,0.000002,0,0.000001,,0.999961,0.008387,-0.002526,-0.000954,0.961376,-0.288512,-0.111789,0.999985,-0.001951,0.005035,0.001866,0.999858,0.016778,-0.005067,-0.016769,0.999847
15766,4519508,0.250085,0.245242,9.783152,-0.002731,0.002608,0.000431,-0.222075,-0.35513,0.399969,0.000625,0.000613,0.024458,1,-0.000003,0.000003,0.000001,100640,0.999961,0.008383,-0.002523,-0.000954,0.960877,-0.288134,-0.111765,0.999986,-0.001951,0.005029,0.001866,0.999858,0.016769,-0.005061,-0.01676,0.999847
15767,4519533,-0.203613,0.152931,9.825446,0.001294,-0.002736,0.001947,,,,-0.000509,0.000382,0.024564,1,0.000002,-0.000003,0.000002,,0.999961,0.008383,-0.002526,-0.000952,0.960953,-0.288525,-0.111538,0.999986,-0.001947,0.005036,0.001862,0.999858,0.016771,-0.005068,-0.016761,0.999847
15768,4519558,0.219054,0.135311,9.761833,0.002296,0.00019,-0.000291,,,,0.000548,0.000338,0.024405,1,0.000003,0,0,,0.999961,0.008385,-0.002525,-0.000954,0.961168,-0.288454,-0.111758,0.999986,-0.001951,0.005034,0.001866,0.999858,0.016775,-0.005066,-0.016765,0.999847
15769,4519583,0.042221,0.176109,9.812209,0.005377,-0.000878,-0.001618,,,,0.000106,0.00044,0.024531,1,0.000007,-0.000001,-0.000002,,0.999961,0.008391,-0.002526,-0.000957,0.961832,-0.288571,-0.112036,0.999986,-0.001955,0.005036,0.001871,0.999858,0.016786,-0.005069,-0.016776,0.999847
15770,4519608,-0.098221,0.081822,9.775876,-0.00308,0.00362,0.000753,-0.223046,-0.355132,0.396495,-0.000245,0.000205,0.02444,1,-0.000004,0.000005,0.000001,100636,0.999961,0.008386,-0.002522,-0.000956,0.961282,-0.288048,-0.111964,0.999986,-0.001954,0.005027,0.00187,0.999858,0.016777,-0.005059,-0.016767,0.999847
15771,4519633,0.132138,0.255778,9.801886,0.002051,-0.004184,-0.001283,,,,0.00033,0.000639,0.024505,1,0.000003,-0.000005,-0.000002,,0.999961,0.008388,-0.002527,-0.000958,0.961469,-0.288639,-0.112202,0.999986,-0.001958,0.005038,0.001873,0.999858,0.01678,-0.00507,-0.01677,0.999847
15772,4519658,0.030274,0.124864,9.833384,-0.000796,0.004079,-0.000265,,,,0.000076,0.000312,0.024583,1,-0.000001,0.000005,0,,0.999961,0.008386,-0.002522,-0.00096,0.961242,-0.288012,-0.112434,0.999986,-0.001962,0.005027,0.001878,0.999858,0.016776,-0.005059,-0.016766,0.999847
15773,4519683,0.02628,0.130782,9.749268,0.005273,0.004662,0.001092,,,,0.000066,0.000327,0.024373,1,0.000007,0.000006,0.000001,,0.999961,0.008391,-0.002516,-0.000959,0.961889,-0.287341,-0.112311,0.999986,-0.00196,0.005015,0.001876,0.999857,0.016787,-0.005047,-0.016777,0.999847
15774,4519708,-0.053978,0.103407,9.782124,0.001175,-0.000955,0.002692,-0.224467,-0.356105,0.399951,-0.000135,0.000258,0.024455,1,0.000001,-0.000001,0.000003,100638,0.999961,0.008392,-0.002517,-0.000956,0.961947,-0.287479,-0.111972,0.999986,-0.001954,0.005017,0.00187,0.999857,0.016788,-0.00505,-0.016779,0.999847
15775,4519720,,,,,,,,,,,,,,,,,,,,,,,,,,,,,,,,,
15776,4519733,0.046502,0.258503,9.823896,-0.003478,-0.002381,0.000022,,,,0.000116,0.000646,0.02456,1,-0.000004,-0.000003,0,,0.999961,0.008387,-0.00252,-0.000956,0.961341,-0.287814,-0.112019,0.999986,-0.001955,0.005023,0.001871,0.999858,0.016778,-0.005055,-0.016768,0.999847
15777,4519758,0.041773,0.053456,9.800649,0.003017,0.000864,-0.001134,,,,0.000104,0.000133,0.024502,1,0.000004,0.000001,-0.000001,,0.999961,0.008389,-0.002518,-0.000959,0.96166,-0.287645,-0.112291,0.999986,-0.00196,0.00502,0.001875,0.999858,0.016783,-0.005053,-0.016773,0.999847
15778,4519783,0.032962,0.315435,9.801744,0.001279,-0.000498,0.000945,,,,0.000082,0.000789,0.024504,1,0.000002,-0.000001,0.000001,,0.999961,0.00839,-0.002519,-0.000958,0.961735,-0.287713,-0.112201,0.999986,-0.001958,0.005022,0.001874,0.999858,0.016784,-0.005054,-0.016775,0.999847
15779,4519808,0.005736,-0.030571,9.767342,-0.000234,0.002357,-0.000724,-0.224014,-0.353637,0.400439,0.000014,-0.000076,0.024418,1,0,0.000003,-0.000001,100636,0.999961,0.008389,-0.002516,-0.000959,0.961594,-0.287368,-0.112344,0.999986,-0.001961,0.005015,0.001876,0.999858,0.016782,-0.005048,-0.016772,0.999847
15780,4519833,0.021398,0.345662,9.867188,0.003969,-0.001436,0.000256,,,,0.000053,0.000864,0.024668,1,0.000005,-0.000002,0,,0.999961,0.008393,-0.002518,-0.000959,0.962054,-0.287568,-0.112355,0.999986,-0.001961,0.005019,0.001876,0.999857,0.01679,-0.005051,-0.01678,0.999847
15781,4519858,0.063824,0.048641,9.783459,0.003081,0.001965,0.000159,,,,0.00016,0.000121,0.024459,1,0.000004,0.000002,0,,0.999961,0.008396,-0.002515,-0.00096,0.962382,-0.287246,-0.112432,0.999986,-0.001962,0.005013,0.001878,0.999857,0.016796,-0.005046,-0.016786,0.999846
15782,4519883,-0.068338,0.290204,9.818954,0.005843,-0.002566,0.001211,,,,-0.000171,0.000725,0.024547,1,0.000007,-0.000003,0.000002,,0.999961,0.008402,-0.002518,-0.000959,0.96311,-0.28761,-0.112309,0.999985,-0.00196,0.00502,0.001876,0.999857,0.016808,-0.005052,-0.016799,0.999846
15783,4519908,0.199391,0.007128,9.770182,0.001929,0.00482,-0.000457,-0.221612,-0.353651,0.399967,0.000499,0.000018,0.024425,1,0.000002,0.000006,-0.000001,100637,0.999961,0.008404,-0.002512,-0.00096,0.963279,-0.286913,-0.112407,0.999986,-0.001962,0.005008,0.001877,0.999857,0.016811,-0.00504,-0.016802,0.999846
15784,4519933,-0.102389,0.328282,9.835243,0.001097,-0.004333,0.000287,,,,-0.000256,0.000821,0.024588,1,0.000001,-0.000005,0,,0.999961,0.008404,-0.002517,-0.00096,0.963328,-0.287529,-0.112421,0.999986,-0.001962,0.005018,0.001877,0.999857,0.016812,-0.005051,-0.016803,0.999846
15785,4519958,0.084026,0.057885,9.799649,-0.000097,0.00362,0.001419,,,,0.00021,0.000145,0.024499,1,0,0.000005,0.000002,,0.999961,0.008403,-0.002512,-0.000959,0.963199,-0.286972,-0.112338,0.999986,-0.001961,0.005009,0.001876,0.999857,0.01681,-0.005041,-0.0168,0.999846
15786,4519983,0.156448,0.283498,9.8505,0.003666,0.001077,0.000527,,,,0.000391,0.000709,0.024626,1,0.000005,0.000001,0.000001,,0.999961,0.008407,-0.002511,-0.000959,0.963616,-0.286813,-0.112304,0.999985,-0.00196,0.005006,0.001876,0.999857,0.016817,-0.005038,-0.016808,0.999846
15787,4520008,-0.122709,0.050246,9.775997,-0.002488,-0.002156,0.000115,-0.227365,-0.354604,0.401401,-0.000307,0.000126,0.02444,1,-0.000003,-0.000003,0,100634,0.999961,0.008402,-0.002514,-0.000959,0.963151,-0.287117,-0.112337,0.999986,-0.001961,0.005011,0.001876,0.999857,0.016809,-0.005043,-0.0168,0.999846
15788,4520033,0.147161,0.20778,9.776928,-0.002027,0.000603,0.000524,,,,0.000368,0.00052,0.024442,1,-0.000003,0.000001,0.000001,,0.999961,0.008399,-0.002513,-0.000959,0.962753,-0.287026,-0.112305,0.999985,-0.00196,0.00501,0.001876,0.999857,0.016802,-0.005042,-0.016793,0.999846
15789,4520058,-0.023137,0.18263,9.83453,-0.001898,-0.003456,-0.001058,,,,-0.000058,0.000457,0.024586,1,-0.000002,-0.000004,-0.000001,,0.999961,0.008396,-0.002517,-0.00096,0.962367,-0.287475,-0.112477,0.999986,-0.001963,0.005017,0.001879,0.999857,0.016795,-0.00505,-0.016786,0.999846
15790,4520083,0.05675,0.105612,9.818747,-0.003196,0.001711,0.003395,,,,0.000142,0.000264,0.024547,1,-0.000004,0.000002,0.000004,,0.999961,0.008391,-0.002515,-0.000957,0.961799,-0.287233,-0.112031,0.999986,-0.001955,0.005013,0.001871,0.999858,0.016786,-0.005045,-0.016776,0.999847
15791,4520108,0.070771,0.26324,9.783147,0.002057,-0.003099,0.005672,-0.224028,-0.352651,0.399444,0.000177,0.000658,0.024458,1,0.000003,-0.000004,0.000007,100638,0.999961,0.008392,-0.002519,-0.00095,0.961981,-0.287685,-0.11127,0.999986,-0.001942,0.005021,0.001857,0.999858,0.016789,-0.005053,-0.016779,0.999847
15792,4520133,-0.184542,-0.016919,9.785032,0.00423,0.001236,0.001375,,,,-0.000461,-0.000043,0.024463,1,0.000005,0.000002,0.000002,,0.999961,0.008397,-0.002517,-0.000949,0.962478,-0.287505,-0.111115,0.999986,-0.001939,0.005018,0.001855,0.999857,0.016797,-0.00505,-0.016788,0.999846
15793,4520158,0.202145,0.2759,9.806703,0.00009,-0.001523,-0.000198,,,,0.000505,0.00069,0.024517,1,0,-0.000002,0,,0.999961,0.008396,-0.002519,-0.000951,0.962379,-0.28768,-0.111361,0.999985,-0.001944,0.005021,0.001859,0.999857,0.016796,-0.005053,-0.016786,0.999846
15794,4520183,0.001491,0.02389,9.794474,0.000987,-0.001478,0.002407,,,,0.000004,0.00006,0.024486,1,0.000001,-0.000002,0.000003,,0.999961,0.008396,-0.00252,-0.000948,0.96241,-0.287891,-0.111064,0.999985,-0.001938,0.005025,0.001854,0.999857,0.016796,-0.005056,-0.016787,0.999846
15795,4520208,-0.061798,0.28555,9.839918,-0.001121,-0.000945,0.000311,-0.222576,-0.353648,0.398968,-0.000155,0.000714,0.0246,1,-0.000001,-0.000001,0,100628,0.999961,0.008394,-0.002522,-0.000948,0.962142,-0.288022,-0.111066,0.999985,-0.001938,0.005027,0.001854,0.999857,0.016792,-0.005059,-0.016782,0.999846
15796,4520233,0.186984,0.006154,9.736609,0.004017,-0.000671,-0.001855,,,,0.000467,0.000015,0.024342,1,0.000005,-0.000001,-0.000002,,0.999961,0.008398,-0.002522,-0.000951,0.96261,-0.288108,-0.111378,0.999985,-0.001944,0.005028,0.001859,0.999857,0.0168,-0.00506,-0.01679,0.999846
15797,4520258,-0.098557,0.231068,9.86352,0.000685,0.00071,-0.001779,,,,-0.000246,0.000578,0.024659,1,0.000001,0.000001,-0.000002,,0.999961,0.008398,-0.002521,-0.000953,0.962595,-0.28796,-0.111633,0.999985,-0.001948,0.005026,0.001864,0.999857,0.016799,-0.005058,-0.01679,0.999846
15798,4520283,0.146337,0.18201,9.785056,-0.000897,-0.000773,0.001395,,,,0.000366,0.000455,0.024463,1,-0.000001,-0.000001,0.000002,,0.999961,0.008396,-0.002522,-0.000952,0.962358,-0.288069,-0.111479,0.999985,-0.001946,0.005028,0.001861,0.999857,0.016795,-0.00506,-0.016786,0.999846
15799,4520308,-0.084442,0.19129,9.804128,0.003197,-0.003174,0.000117,-0.219697,-0.352671,0.401466,-0.000211,0.000478,0.02451,1,0.000004,-0.000004,0,100634,0.999961,0.008399,-0.002526,-0.000952,0.962708,-0.288518,-0.111515,0.999985,-0.001946,0.005036,0.001861,0.999857,0.016801,-0.005068,-0.016792,0.999846
15800,4520333,0.089595,0.173969,9.806373,-0.005075,0.00206,0.000039,,,,0.000224,0.000435,0.024516,1,-0.000006,0.000003,0,,0.999961,0.008391,-0.002523,-0.000952,0.961873,-0.288217,-0.111548,0.999985,-0.001947,0.00503,0.001862,0.999857,0.016787,-0.005062,-0.016777,0.999846
15801,4520358,0.002216,0.142623,9.785792,0.006864,0.000051,0.000869,,,,0.000006,0.000356,0.024464,1,0.000009,0,0.000001,,0.999961,0.008399,-0.002523,-0.000953,0.962742,-0.28817,-0.111579,0.999986,-0.001947,0.005029,0.001863,0.999857,0.016802,-0.005061,-0.016792,0.999846
15802,4520383,0.068083,0.270623,9.802844,-0.001206,0.000385,-0.000362,,,,0.00017,0.000677,0.024507,1,-0.000002,0,0,,0.999961,0.008396,-0.002522,-0.000953,0.962462,-0.288108,-0.111675,0.999986,-0.001949,0.005028,0.001864,0.999857,0.016797,-0.00506,-0.016788,0.999846
15803,4520408,-0.033181,0.117104,9.788752,0.001673,-0.004217,-0.002457,-0.222098,-0.353154,0.39996,-0.000083,0.000293,0.024472,1,0.000002,-0.000005,-0.000003,100639,0.999961,0.008398,-0.002528,-0.000957,0.962596,-0.288701,-0.112081,0.999986,-0.001956,0.005039,0.001871,0.999857,0.016799,-0.005071,-0.01679,0.999846
15804,4520433,0.004763,0.126459,9.792161,0.002009,-0.000776,-0.000411,,,,0.000012,0.000316,0.02448,1,0.000003,-0.000001,-0.000001,,0.999961,0.008399,-0.002528,-0.000958,0.962776,-0.288805,-0.112186,0.999986,-0.001958,0.005041,0.001873,0.999857,0.016803,-0.005073,-0.016793,0.999846
15805,4520458,0.086045,0.239044,9.843181,0.002223,-0.002748,0.005523,,,,0.000215,0.000597,0.024608,1,0.000003,-0.000003,0.000007,,0.999961,0.008401,-0.002532,-0.000952,0.962976,-0.289169,-0.111534,0.999985,-0.001947,0.005047,0.001862,0.999857,0.016806,-0.005079,-0.016796,0.999846
15806,4520483,-0.037623,0.138818,9.807394,0.003339,-0.001913,0.001428,,,,-0.000094,0.000347,0.024518,1,0.000004,-0.000002,0.000002,,0.999961,0.008404,-0.002534,-0.000951,0.963346,-0.289441,-0.111378,0.999985,-0.001944,0.005052,0.001859,0.999857,0.016813,-0.005084,-0.016803,0.999846
15807,4520508,0.023807,0.161669,9.749864,0.003784,-0.000523,-0.000036,-0.224516,-0.351657,0.40092,0.000059,0.000404,0.024375,1,0.000005,-0.000001,0,100643,0.999961,0.008408,-0.002535,-0.000951,0.96378,-0.28951,-0.111429,0.999985,-0.001945,0.005053,0.00186,0.999857,0.01682,-0.005085,-0.01681,0.999846
15808,4520533,-0.049681,0.133881,9.822487,0.002299,-0.005072,0.000823,,,,-0.000125,0.000335,0.024556,1,0.000003,-0.000006,0.000001,,0.999961,0.00841,-0.002541,-0.000951,0.964001,-0.290233,-0.111368,0.999985,-0.001944,0.005065,0.001858,0.999857,0.016824,-0.005097,-0.016814,0.999846
15809,4520558,0.125758,0.140782,9.777929,-0.003104,-0.000668,-0.000201,,,,0.000314,0.000352,0.024445,1,-0.000004,-0.000001,0,,0.999961,0.008405,-0.002541,-0.000952,0.963443,-0.290286,-0.111547,0.999985,-0.001947,0.005066,0.001861,0.999857,0.016814,-0.005098,-0.016805,0.999846
15810,4520583,-0.046198,0.150769,9.831118,0.000685,0.004552,0.000524,,,,-0.000115,0.000377,0.024578,1,0.000001,0.000006,0.000001,,0.999961,0.008405,-0.002536,-0.000952,0.963433,-0.28963,-0.111505,0.999985,-0.001946,0.005055,0.001861,0.999857,0.016814,-0.005087,-0.016804,0.999846
15811,4520608,0.025697,0.123217,9.801771,-0.003798,0.000209,0.002145,-0.222076,-0.354632,0.401947,0.000064,0.000308,0.024504,1,-0.000005,0,0.000003,100632,0.999961,0.008399,-0.002535,-0.000949,0.962779,-0.289599,-0.111242,0.999985,-0.001942,0.005054,0.001856,0.999857,0.016803,-0.005086,-0.016793,0.999846
15812,4520633,0.058635,0.13512,9.787488,-0.00062,0.000679,0.001261,,,,0.000147,0.000338,0.024469,1,-0.000001,0.000001,0.000002,,0.999961,0.008398,-0.002534,-0.000948,0.962581,-0.289499,-0.111104,0.999985,-0.001939,0.005053,0.001854,0.999857,0.016799,-0.005085,-0.01679,0.999846
15813,4520658,0.113583,0.210662,9.808135,-0.000186,-0.000966,0.000574,,,,0.000284,0.000527,0.02452,1,0,-0.000001,0.000001,,0.999961,0.008396,-0.002535,-0.000949,0.962441,-0.289597,-0.111156,0.999985,-0.00194,0.005054,0.001855,0.999857,0.016797,-0.005086,-0.016787,0.999846
15814,4520683,-0.060299,0.07702,9.804416,0.002392,0.001099,0.001497,,,,-0.000151,0.000192,0.024511,1,0.000003,0.000001,0.000002,,0.999961,0.008398,-0.002534,-0.000947,0.962674,-0.289438,-0.110983,0.999985,-0.001937,0.005052,0.001852,0.999857,0.016801,-0.005083,-0.016791,0.999846
15815,4520708,0.13117,0.258957,9.785387,0.005276,0.000285,-0.002125,-0.223071,-0.352161,0.399946,0.000328,0.000647,0.024463,1,0.000007,0,-0.000003,100636,0.999961,0.008404,-0.002533,-0.00095,0.963323,-0.289386,-0.111331,0.999985,-0.001943,0.005051,0.001858,0.999857,0.016812,-0.005083,-0.016803,0.999846
15816,4520733,-0.024379,0.024677,9.790492,0.000013,0.004407,0.000801,,,,-0.000061,0.000062,0.024476,1,0,0.000006,0.000001,,0.999961,0.008403,-0.002528,-0.00095,0.963217,-0.288751,-0.11125,0.999985,-0.001942,0.00504,0.001857,0.999857,0.01681,-0.005072,-0.016801,0.999846
15817,4520758,0.003611,0.322126,9.834788,0.00189,0.001524,0.001075,,,,0.000009,0.000805,0.024587,1,0.000002,0.000002,0.000001,,0.999961,0.008404,-0.002526,-0.00095,0.963373,-0.288493,-0.111289,0.999985,-0.001942,0.005035,0.001857,0.999857,0.016813,-0.005067,-0.016803,0.999846
15818,4520783,-0.000551,0.124062,9.781218,0.0015,-0.001836,0.000186,,,,-0.000001,0.00031,0.024453,1,0.000002,-0.000002,0,,0.999961,0.008405,-0.002528,-0.00095,0.96348,-0.288751,-0.111311,0.999985,-0.001943,0.00504,0.001858,0.999857,0.016815,-0.005072,-0.016805,0.999846
15819,4520808,0.037283,0.222734,9.816505,-0.002764,0.00414,0.00103,-0.222077,-0.354633,0.401452,0.000093,0.000557,0.024541,1,-0.000003,0.000005,0.000001,100636,0.999961,0.008401,-0.002523,-0.000949,0.962975,-0.288155,-0.111198,0.999985,-0.001941,0.005029,0.001856,0.999857,0.016806,-0.005061,-0.016797,0.999846
15820,4520833,-0.002164,0.176517,9.783004,0.003568,-0.002138,0.002234,,,,-0.000006,0.000441,0.024458,1,0.000004,-0.000003,0.000003,,0.999961,0.008404,-0.002525,-0.000947,0.963377,-0.288461,-0.110928,0.999986,-0.001936,0.005035,0.001851,0.999857,0.016813,-0.005066,-0.016804,0.999846
15821,4520858,0.073095,0.165779,9.795023,-0.001688,0.001117,-0.00145,,,,0.000183,0.000415,0.024488,1,-0.000002,0.000001,-0.000002,,0.999961,0.008401,-0.002524,-0.00095,0.963022,-0.288255,-0.111237,0.999986,-0.001941,0.005031,0.001857,0.999857,0.016807,-0.005063,-0.016797,0.999846
15822,4520883,-0.016273,0.19928,9.83906,-0.001539,-0.000431,0.001613,,,,-0.000041,0.000498,0.024598,1,-0.000002,-0.000001,0.000002,,0.999961,0.008399,-0.002524,-0.000948,0.962693,-0.288315,-0.111051,0.999986,-0.001938,0.005032,0.001853,0.999857,0.016801,-0.005064,-0.016792,0.999846
15823,4520908,-0.031807,0.100444,9.752011,0.000917,0.000078,-0.00004,-0.221602,-0.35464,0.399477,-0.00008,0.000251,0.02438,1,0.000001,0,0,100634,0.999961,0.008399,-0.002524,-0.000948,0.962716,-0.288298,-0.111101,0.999986,-0.001939,0.005032,0.001854,0.999857,0.016802,-0.005064,-0.016792,0.999846
15824,4520933,0.010759,0.19068,9.817932,0.001632,-0.000249,0.001428,,,,0.000027,0.000477,0.024545,1,0.000002,0,0.000002,,0.999961,0.0084,-0.002524,-0.000947,0.962841,-0.288331,-0.110942,0.999986,-0.001936,0.005032,0.001851,0.999857,0.016804,-0.005064,-0.016794,0.999846
15825,4520958,0.047424,0.164882,9.822418,-0.003228,-0.004862,0.005307,,,,0.000118,0.000412,0.024556,1,-0.000004,-0.000006,0.000007,,0.999961,0.008395,-0.00253,-0.000942,0.962261,-0.288998,-0.110332,0.999986,-0.001926,0.005044,0.001841,0.999857,0.016794,-0.005076,-0.016784,0.999846
15826,4520983,0.120008,0.121564,9.786678,-0.003178,-0.001486,-0.002019,,,,0.0003,0.000304,0.024467,1,-0.000004,-0.000002,-0.000003,,0.999961,0.00839,-0.002532,-0.000945,0.9617,-0.2892,-0.110669,0.999986,-0.001932,0.005047,0.001847,0.999858,0.016784,-0.005079,-0.016774,0.999847
15827,4521008,-0.088948,0.135266,9.802031,-0.00051,0.003625,-0.000326,-0.225456,-0.353129,0.402898,-0.000222,0.000338,0.024505,1,-0.000001,0.000005,0,100634,0.999961,0.008388,-0.002527,-0.000945,0.961519,-0.288675,-0.110752,0.999986,-0.001933,0.005038,0.001848,0.999858,0.016781,-0.00507,-0.016771,0.999847
